Timestamp,ACC_X,ACC_Y,ACC_Z,Note,AGG,ED,SIB,Condition
1565373720000,-41,18,48,0,0,0,0,0
1565373720031.25,-43,17,46,0,0,0,0,0
1565373720062.5,-44,17,46,0,0,0,0,0
1565373720093.75,-43,16,46,0,0,0,0,0
1565373720125,-42,15,46,0,0,0,0,0
1565373720156.25,-42,15,46,0,0,0,0,0
1565373720187.5,-42,14,50,0,0,0,0,0
1565373720218.75,-44,15,47,0,0,0,0,0
1565373720250,-45,14,51,0,0,0,0,0
1565373720281.25,-44,17,47,0,0,0,0,0
1565373720312.5,-44,19,41,0,0,0,0,0
1565373720343.75,-42,18,42,0,0,0,0,0
1565373720375,-40,16,47,0,0,0,0,0
1565373720406.25,-47,22,46,0,0,0,0,0
1565373720437.5,-44,21,46,0,0,0,0,0
1565373720468.75,-44,19,46,0,0,0,0,0
1565373720500,-47,18,46,0,0,0,0,0
1565373720531.25,-47,17,47,0,0,0,0,0
1565373720562.5,-45,16,49,0,0,0,0,0
1565373720593.75,-45,15,49,0,0,0,0,0
1565373720625,-44,15,47,0,0,0,0,0
1565373720656.25,-41,17,46,0,0,0,0,0
1565373720687.5,-41,18,45,0,0,0,0,0
1565373720718.75,-40,19,45,0,0,0,0,0
1565373720750,-39,20,46,0,0,0,0,0
1565373720781.25,-40,19,47,0,0,0,0,0
1565373720812.5,-41,19,48,0,0,0,0,0
1565373720843.75,-42,18,48,0,0,0,0,0
1565373720875,-42,18,49,0,0,0,0,0
1565373720906.25,-41,19,49,0,0,0,0,0
1565373720937.5,-41,21,49,0,0,0,0,0
1565373720968.75,-41,23,50,0,0,0,0,0
1565373721000,-44,27,51,0,0,0,0,0
1565373721031.25,-44,27,51,0,0,0,0,0
1565373721062.5,-40,27,51,0,0,0,0,0
1565373721093.75,-37,27,50,0,0,0,0,0
1565373721125,-34,27,50,0,0,0,0,0
1565373721156.25,-18,29,49,0,0,0,0,0
1565373721187.5,-45,17,42,0,0,0,0,0
1565373721218.75,-43,12,47,0,0,0,0,0
1565373721250,-43,8,45,0,0,0,0,0
1565373721281.25,-31,11,65,0,0,0,0,0
1565373721312.5,-39,13,53,0,0,0,0,0
1565373721343.75,-39,16,40,0,0,0,0,0
1565373721375,-42,20,32,0,0,0,0,0
1565373721406.25,-43,19,33,0,0,0,0,0
1565373721437.5,-50,16,33,0,0,0,0,0
1565373721468.75,-54,20,33,0,0,0,0,0
1565373721500,-54,21,32,0,0,0,0,0
1565373721531.25,-56,23,35,0,0,0,0,0
1565373721562.5,-67,22,28,0,0,0,0,0
1565373721593.75,-65,20,25,0,0,0,0,0
1565373721625,-62,21,40,0,0,0,0,0
1565373721656.25,-59,21,43,0,0,0,0,0
1565373721687.5,-59,19,39,0,0,0,0,0
1565373721718.75,-61,25,42,0,0,0,0,0
1565373721750,-57,24,44,0,0,0,0,0
1565373721781.25,-34,19,48,0,0,0,0,0
1565373721812.5,-31,18,46,0,0,0,0,0
1565373721843.75,-27,20,39,0,0,0,0,0
1565373721875,-19,15,41,0,0,0,0,0
1565373721906.25,-32,14,43,0,0,0,0,0
1565373721937.5,-48,14,49,0,0,0,0,0
1565373721968.75,-45,25,58,0,0,0,0,0
1565373722000,-46,34,54,0,0,0,0,0
1565373722031.25,-65,29,48,0,0,0,0,0
1565373722062.5,-28,30,51,0,0,0,0,0
1565373722093.75,-28,26,46,0,0,0,0,0
1565373722125,-33,26,45,0,0,0,0,0
1565373722156.25,-34,30,40,0,0,0,0,0
1565373722187.5,-34,27,46,0,0,0,0,0
1565373722218.75,-29,29,47,0,0,0,0,0
1565373722250,-41,29,49,0,0,0,0,0
1565373722281.25,-34,29,53,0,0,0,0,0
1565373722312.5,-32,29,53,0,0,0,0,0
1565373722343.75,-38,33,42,0,0,0,0,0
1565373722375,-36,33,40,0,0,0,0,0
1565373722406.25,-31,31,47,0,0,0,0,0
1565373722437.5,-29,31,47,0,0,0,0,0
1565373722468.75,-30,30,48,0,0,0,0,0
1565373722500,-36,31,49,0,0,0,0,0
1565373722531.25,-34,32,54,0,0,0,0,0
1565373722562.5,-30,33,52,0,0,0,0,0
1565373722593.75,-29,33,48,0,0,0,0,0
1565373722625,-29,33,47,0,0,0,0,0
1565373722656.25,-27,33,47,0,0,0,0,0
1565373722687.5,-26,33,46,0,0,0,0,0
1565373722718.75,-26,34,47,0,0,0,0,0
1565373722750,-27,34,46,0,0,0,0,0
1565373722781.25,-27,35,45,0,0,0,0,0
1565373722812.5,-28,35,47,0,0,0,0,0
1565373722843.75,-27,36,47,0,0,0,0,0
1565373722875,-28,36,46,0,0,0,0,0
1565373722906.25,-28,37,42,0,0,0,0,0
1565373722937.5,-29,38,40,0,0,0,0,0
1565373722968.75,-31,38,42,0,0,0,0,0
1565373723000,-34,38,44,0,0,0,0,0
1565373723031.25,-34,39,45,0,0,0,0,0
1565373723062.5,-36,39,45,0,0,0,0,0
1565373723093.75,-36,39,45,0,0,0,0,0
1565373723125,-32,37,43,0,0,0,0,0
1565373723156.25,-31,35,41,0,0,0,0,0
1565373723187.5,-30,34,40,0,0,0,0,0
1565373723218.75,-39,27,39,0,0,0,0,0
1565373723250,-44,25,38,0,0,0,0,0
1565373723281.25,-45,26,37,0,0,0,0,0
1565373723312.5,-52,30,32,0,0,0,0,0
1565373723343.75,-56,38,33,0,0,0,0,0
1565373723375,-47,45,38,0,0,0,0,0
1565373723406.25,-34,50,50,0,0,0,0,0
1565373723437.5,-44,40,45,0,0,0,0,0
1565373723468.75,-43,32,41,0,0,0,0,0
1565373723500,-46,28,34,0,0,0,0,0
1565373723531.25,-41,28,32,0,0,0,0,0
1565373723562.5,-40,28,34,0,0,0,0,0
1565373723593.75,-41,29,42,0,0,0,0,0
1565373723625,-47,28,42,0,0,0,0,0
1565373723656.25,-57,28,43,0,0,0,0,0
1565373723687.5,-50,27,38,0,0,0,0,0
1565373723718.75,-46,27,38,0,0,0,0,0
1565373723750,-45,27,38,0,0,0,0,0
1565373723781.25,-46,28,38,0,0,0,0,0
1565373723812.5,-41,28,39,0,0,0,0,0
1565373723843.75,-42,28,42,0,0,0,0,0
1565373723875,-45,26,42,0,0,0,0,0
1565373723906.25,-46,24,41,0,0,0,0,0
1565373723937.5,-44,23,40,0,0,0,0,0
1565373723968.75,-45,23,42,0,0,0,0,0
1565373724000,-42,21,43,0,0,0,0,0
1565373724031.25,-53,22,43,0,0,0,0,0
1565373724062.5,-50,28,42,0,0,0,0,0
1565373724093.75,-45,26,43,0,0,0,0,0
1565373724125,-40,24,42,0,0,0,0,0
1565373724156.25,-44,23,45,0,0,0,0,0
1565373724187.5,-45,24,44,0,0,0,0,0
1565373724218.75,-43,24,42,0,0,0,0,0
1565373724250,-42,24,41,0,0,0,0,0
1565373724281.25,-48,27,38,0,0,0,0,0
1565373724312.5,-44,28,38,0,0,0,0,0
1565373724343.75,-39,28,41,0,0,0,0,0
1565373724375,-45,27,39,0,0,0,0,0
1565373724406.25,-46,25,44,0,0,0,0,0
1565373724437.5,-46,26,41,0,0,0,0,0
1565373724468.75,-44,27,40,0,0,0,0,0
1565373724500,-38,26,37,0,0,0,0,0
1565373724531.25,-38,24,37,0,0,0,0,0
1565373724562.5,-44,20,41,0,0,0,0,0
1565373724593.75,-47,22,43,0,0,0,0,0
1565373724625,-49,28,45,0,0,0,0,0
1565373724656.25,-60,38,42,0,0,0,0,0
1565373724687.5,-44,29,46,0,0,0,0,0
1565373724718.75,-31,23,47,0,0,0,0,0
1565373724750,-35,20,40,0,0,0,0,0
1565373724781.25,-47,22,36,0,0,0,0,0
1565373724812.5,-48,23,39,0,0,0,0,0
1565373724843.75,-44,24,43,0,0,0,0,0
1565373724875,-43,25,43,0,0,0,0,0
1565373724906.25,-43,25,43,0,0,0,0,0
1565373724937.5,-45,28,41,0,0,0,0,0
1565373724968.75,-44,27,40,0,0,0,0,0
1565373725000,-42,26,42,0,0,0,0,0
1565373725031.25,-43,27,41,0,0,0,0,0
1565373725062.5,-44,27,43,0,0,0,0,0
1565373725093.75,-46,28,45,0,0,0,0,0
1565373725125,-47,27,42,0,0,0,0,0
1565373725156.25,-46,25,43,0,0,0,0,0
1565373725187.5,-39,24,45,0,0,0,0,0
1565373725218.75,-42,26,46,0,0,0,0,0
1565373725250,-42,25,44,0,0,0,0,0
1565373725281.25,-41,23,43,0,0,0,0,0
1565373725312.5,-32,20,46,0,0,0,0,0
1565373725343.75,-32,19,45,0,0,0,0,0
1565373725375,-41,20,40,0,0,0,0,0
1565373725406.25,-46,24,45,0,0,0,0,0
1565373725437.5,-46,26,43,0,0,0,0,0
1565373725468.75,-42,27,46,0,0,0,0,0
1565373725500,-41,27,40,0,0,0,0,0
1565373725531.25,-41,24,43,0,0,0,0,0
1565373725562.5,-47,26,42,0,0,0,0,0
1565373725593.75,-45,26,41,0,0,0,0,0
1565373725625,-47,23,40,0,0,0,0,0
1565373725656.25,-44,23,43,0,0,0,0,0
1565373725687.5,-44,24,44,0,0,0,0,0
1565373725718.75,-45,24,42,0,0,0,0,0
1565373725750,-49,23,40,0,0,0,0,0
1565373725781.25,-47,22,40,0,0,0,0,0
1565373725812.5,-46,24,39,0,0,0,0,0
1565373725843.75,-41,25,40,0,0,0,0,0
1565373725875,-43,25,40,0,0,0,0,0
1565373725906.25,-49,24,41,0,0,0,0,0
1565373725937.5,-52,24,39,0,0,0,0,0
1565373725968.75,-50,23,39,0,0,0,0,0
1565373726000,-45,23,41,0,0,0,0,0
1565373726031.25,-48,24,37,0,0,0,0,0
1565373726062.5,-49,24,37,0,0,0,0,0
1565373726093.75,-50,24,38,0,0,0,0,0
1565373726125,-48,25,39,0,0,0,0,0
1565373726156.25,-47,25,38,0,0,0,0,0
1565373726187.5,-48,25,38,0,0,0,0,0
1565373726218.75,-49,25,38,0,0,0,0,0
1565373726250,-49,26,38,0,0,0,0,0
1565373726281.25,-50,24,40,0,0,0,0,0
1565373726312.5,-54,23,39,0,0,0,0,0
1565373726343.75,-53,26,37,0,0,0,0,0
1565373726375,-45,26,38,0,0,0,0,0
1565373726406.25,-41,25,40,0,0,0,0,0
1565373726437.5,-35,26,40,0,0,0,0,0
1565373726468.75,-43,26,38,0,0,0,0,0
1565373726500,-48,25,38,0,0,0,0,0
1565373726531.25,-56,25,33,0,0,0,0,0
1565373726562.5,-51,26,37,0,0,0,0,0
1565373726593.75,-48,26,37,0,0,0,0,0
1565373726625,-48,26,35,0,0,0,0,0
1565373726656.25,-49,27,36,0,0,0,0,0
1565373726687.5,-51,26,32,0,0,0,0,0
1565373726718.75,-50,26,34,0,0,0,0,0
1565373726750,-48,26,36,0,0,0,0,0
1565373726781.25,-51,26,34,0,0,0,0,0
1565373726812.5,-50,27,33,0,0,0,0,0
1565373726843.75,-51,27,35,0,0,0,0,0
1565373726875,-52,26,32,0,0,0,0,0
1565373726906.25,-50,27,34,0,0,0,0,0
1565373726937.5,-48,27,35,0,0,0,0,0
1565373726968.75,-50,26,36,0,0,0,0,0
1565373727000,-53,28,34,0,0,0,0,0
1565373727031.25,-57,28,30,0,0,0,0,0
1565373727062.5,-49,27,36,0,0,0,0,0
1565373727093.75,-49,25,37,0,0,0,0,0
1565373727125,-46,22,37,0,0,0,0,0
1565373727156.25,-43,20,38,0,0,0,0,0
1565373727187.5,-47,20,35,0,0,0,0,0
1565373727218.75,-51,21,30,0,0,0,0,0
1565373727250,-52,23,32,0,0,0,0,0
1565373727281.25,-57,26,30,0,0,0,0,0
1565373727312.5,-64,28,23,0,0,0,0,0
1565373727343.75,-44,26,36,0,0,0,0,0
1565373727375,-53,25,31,0,0,0,0,0
1565373727406.25,-54,24,30,0,0,0,0,0
1565373727437.5,-54,24,29,0,0,0,0,0
1565373727468.75,-53,23,29,0,0,0,0,0
1565373727500,-52,22,30,0,0,0,0,0
1565373727531.25,-53,21,30,0,0,0,0,0
1565373727562.5,-54,21,30,0,0,0,0,0
1565373727593.75,-54,21,29,0,0,0,0,0
1565373727625,-55,22,27,0,0,0,0,0
1565373727656.25,-56,22,28,0,0,0,0,0
1565373727687.5,-56,23,26,0,0,0,0,0
1565373727718.75,-55,21,27,0,0,0,0,0
1565373727750,-57,20,28,0,0,0,0,0
1565373727781.25,-57,19,28,0,0,0,0,0
1565373727812.5,-51,17,29,0,0,0,0,0
1565373727843.75,-53,15,28,0,0,0,0,0
1565373727875,-57,17,28,0,0,0,0,0
1565373727906.25,-59,20,26,0,0,0,0,0
1565373727937.5,-59,20,24,0,0,0,0,0
1565373727968.75,-58,20,19,0,0,0,0,0
1565373728000,-62,18,22,0,0,0,0,0
1565373728031.25,-60,18,24,0,0,0,0,0
1565373728062.5,-58,16,23,0,0,0,0,0
1565373728093.75,-58,15,23,0,0,0,0,0
1565373728125,-58,15,23,0,0,0,0,0
1565373728156.25,-63,13,24,0,0,0,0,0
1565373728187.5,-60,14,24,0,0,0,0,0
1565373728218.75,-58,15,25,0,0,0,0,0
1565373728250,-58,14,23,0,0,0,0,0
1565373728281.25,-58,14,21,0,0,0,0,0
1565373728312.5,-58,14,18,0,0,0,0,0
1565373728343.75,-60,16,18,0,0,0,0,0
1565373728375,-61,16,17,0,0,0,0,0
1565373728406.25,-64,15,16,0,0,0,0,0
1565373728437.5,-60,10,23,0,0,0,0,0
1565373728468.75,-60,9,23,0,0,0,0,0
1565373728500,-60,9,21,0,0,0,0,0
1565373728531.25,-61,7,19,0,0,0,0,0
1565373728562.5,-61,6,16,0,0,0,0,0
1565373728593.75,-64,4,13,0,0,0,0,0
1565373728625,-62,3,11,0,0,0,0,0
1565373728656.25,-63,3,11,0,0,0,0,0
1565373728687.5,-62,3,14,0,0,0,0,0
1565373728718.75,-65,2,13,0,0,0,0,0
1565373728750,-67,1,12,0,0,0,0,0
1565373728781.25,-70,0,13,0,0,0,0,0
1565373728812.5,-72,-2,18,0,0,0,0,0
1565373728843.75,-72,-4,18,0,0,0,0,0
1565373728875,-68,-7,21,0,0,0,0,0
1565373728906.25,-65,-9,20,0,0,0,0,0
1565373728937.5,-58,-12,21,0,0,0,0,0
1565373728968.75,-56,-15,21,0,0,0,0,0
1565373729000,-50,-18,24,0,0,0,0,0
1565373729031.25,-51,-17,25,0,0,0,0,0
1565373729062.5,-54,-16,34,0,0,0,0,0
1565373729093.75,-54,-11,36,0,0,0,0,0
1565373729125,-60,1,29,0,0,0,0,0
1565373729156.25,-63,4,22,0,0,0,0,0
1565373729187.5,-64,0,20,0,0,0,0,0
1565373729218.75,-65,-7,16,0,0,0,0,0
1565373729250,-64,-11,15,0,0,0,0,0
1565373729281.25,-61,-13,18,0,0,0,0,0
1565373729312.5,-55,-14,28,0,0,0,0,0
1565373729343.75,-58,-17,36,0,0,0,0,0
1565373729375,-61,-18,37,0,0,0,0,0
1565373729406.25,-65,-18,32,0,0,0,0,0
1565373729437.5,-62,-20,27,0,0,0,0,0
1565373729468.75,-60,-22,26,0,0,0,0,0
1565373729500,-61,-24,22,0,0,0,0,0
1565373729531.25,-61,-25,22,0,0,0,0,0
1565373729562.5,-57,-27,23,0,0,0,0,0
1565373729593.75,-47,-22,25,0,0,0,0,0
1565373729625,-46,-20,24,0,0,0,0,0
1565373729656.25,-54,-20,20,0,0,0,0,0
1565373729687.5,-61,-22,20,0,0,0,0,0
1565373729718.75,-61,-22,21,0,0,0,0,0
1565373729750,-57,-22,21,0,0,0,0,0
1565373729781.25,-54,-18,20,0,0,0,0,0
1565373729812.5,-54,-17,20,0,0,0,0,0
1565373729843.75,-59,-16,19,0,0,0,0,0
1565373729875,-62,-18,23,0,0,0,0,0
1565373729906.25,-59,-17,23,0,0,0,0,0
1565373729937.5,-59,-16,22,0,0,0,0,0
1565373729968.75,-57,-13,21,0,0,0,0,0
1565373730000,-57,-12,22,0,0,0,0,0
1565373730031.25,-62,-13,21,0,0,0,0,0
1565373730062.5,-66,-14,20,0,0,0,0,0
1565373730093.75,-67,-14,20,0,0,0,0,0
1565373730125,-68,-17,20,0,0,0,0,0
1565373730156.25,-68,-19,21,0,0,0,0,0
1565373730187.5,-63,-21,22,0,0,0,0,0
1565373730218.75,-59,-19,21,0,0,0,0,0
1565373730250,-58,-19,20,0,0,0,0,0
1565373730281.25,-59,-21,20,0,0,0,0,0
1565373730312.5,-58,-22,20,0,0,0,0,0
1565373730343.75,-57,-21,20,0,0,0,0,0
1565373730375,-57,-20,19,0,0,0,0,0
1565373730406.25,-56,-19,18,0,0,0,0,0
1565373730437.5,-56,-18,17,0,0,0,0,0
1565373730468.75,-54,-13,15,0,0,0,0,0
1565373730500,-58,-7,10,0,0,0,0,0
1565373730531.25,-61,-6,9,0,0,0,0,0
1565373730562.5,-72,-9,7,0,0,0,0,0
1565373730593.75,-76,-15,8,0,0,0,0,0
1565373730625,-75,-18,9,0,0,0,0,0
1565373730656.25,-69,-24,11,0,0,0,0,0
1565373730687.5,-59,-27,16,0,0,0,0,0
1565373730718.75,-55,-26,16,0,0,0,0,0
1565373730750,-50,-24,17,0,0,0,0,0
1565373730781.25,-51,-24,17,0,0,0,0,0
1565373730812.5,-56,-27,15,0,0,0,0,0
1565373730843.75,-57,-31,16,0,0,0,0,0
1565373730875,-56,-32,17,0,0,0,0,0
1565373730906.25,-52,-32,18,0,0,0,0,0
1565373730937.5,-50,-30,18,0,0,0,0,0
1565373730968.75,-50,-29,17,0,0,0,0,0
1565373731000,-51,-25,16,0,0,0,0,0
1565373731031.25,-56,-20,14,0,0,0,0,0
1565373731062.5,-59,-18,13,0,0,0,0,0
1565373731093.75,-66,-18,12,0,0,0,0,0
1565373731125,-69,-21,14,0,0,0,0,0
1565373731156.25,-68,-21,15,0,0,0,0,0
1565373731187.5,-66,-23,17,0,0,0,0,0
1565373731218.75,-61,-24,19,0,0,0,0,0
1565373731250,-58,-24,19,0,0,0,0,0
1565373731281.25,-56,-23,18,0,0,0,0,0
1565373731312.5,-59,-23,17,0,0,0,0,0
1565373731343.75,-59,-24,17,0,0,0,0,0
1565373731375,-60,-24,17,0,0,0,0,0
1565373731406.25,-61,-25,16,0,0,0,0,0
1565373731437.5,-61,-24,16,0,0,0,0,0
1565373731468.75,-60,-23,16,0,0,0,0,0
1565373731500,-59,-24,16,0,0,0,0,0
1565373731531.25,-58,-24,17,0,0,0,0,0
1565373731562.5,-59,-23,17,0,0,0,0,0
1565373731593.75,-60,-23,17,0,0,0,0,0
1565373731625,-60,-24,17,0,0,0,0,0
1565373731656.25,-60,-26,17,0,0,0,0,0
1565373731687.5,-59,-26,17,0,0,0,0,0
1565373731718.75,-57,-27,17,0,0,0,0,0
1565373731750,-56,-26,17,0,0,0,0,0
1565373731781.25,-55,-26,17,0,0,0,0,0
1565373731812.5,-54,-27,17,0,0,0,0,0
1565373731843.75,-54,-26,17,0,0,0,0,0
1565373731875,-54,-26,17,0,0,0,0,0
1565373731906.25,-55,-24,17,0,0,0,0,0
1565373731937.5,-57,-23,18,0,0,0,0,0
1565373731968.75,-58,-23,19,0,0,0,0,0
1565373732000,-58,-23,20,0,0,0,0,0
1565373732031.25,-58,-22,21,0,0,0,0,0
1565373732062.5,-59,-21,21,0,0,0,0,0
1565373732093.75,-59,-20,22,0,0,0,0,0
1565373732125,-59,-20,22,0,0,0,0,0
1565373732156.25,-60,-22,24,0,0,0,0,0
1565373732187.5,-59,-23,24,0,0,0,0,0
1565373732218.75,-59,-24,24,0,0,0,0,0
1565373732250,-57,-24,23,0,0,0,0,0
1565373732281.25,-56,-22,22,0,0,0,0,0
1565373732312.5,-57,-22,22,0,0,0,0,0
1565373732343.75,-58,-21,21,0,0,0,0,0
1565373732375,-59,-22,22,0,0,0,0,0
1565373732406.25,-60,-21,21,0,0,0,0,0
1565373732437.5,-59,-22,21,0,0,0,0,0
1565373732468.75,-56,-21,21,0,0,0,0,0
1565373732500,-55,-20,20,0,0,0,0,0
1565373732531.25,-54,-18,19,0,0,0,0,0
1565373732562.5,-58,-21,19,0,0,0,0,0
1565373732593.75,-60,-25,20,0,0,0,0,0
1565373732625,-60,-30,22,0,0,0,0,0
1565373732656.25,-53,-27,23,0,0,0,0,0
1565373732687.5,-51,-24,22,0,0,0,0,0
1565373732718.75,-55,-25,21,0,0,0,0,0
1565373732750,-57,-28,21,0,0,0,0,0
1565373732781.25,-59,-34,23,0,0,0,0,0
1565373732812.5,-54,-37,26,0,0,0,0,0
1565373732843.75,-48,-35,30,0,0,0,0,0
1565373732875,-40,-27,35,0,0,0,0,0
1565373732906.25,-45,-25,35,0,0,0,0,0
1565373732937.5,-46,-24,35,0,0,0,0,0
1565373732968.75,-55,-22,31,0,0,0,0,0
1565373733000,-60,-22,25,0,0,0,0,0
1565373733031.25,-60,-22,23,0,0,0,0,0
1565373733062.5,-57,-23,20,0,0,0,0,0
1565373733093.75,-54,-24,20,0,0,0,0,0
1565373733125,-54,-26,20,0,0,0,0,0
1565373733156.25,-52,-26,20,0,0,0,0,0
1565373733187.5,-57,-28,21,0,0,0,0,0
1565373733218.75,-59,-31,22,0,0,0,0,0
1565373733250,-57,-36,25,0,0,0,0,0
1565373733281.25,-49,-35,28,0,0,0,0,0
1565373733312.5,-47,-35,28,0,0,0,0,0
1565373733343.75,-44,-35,30,0,0,0,0,0
1565373733375,-44,-36,31,0,0,0,0,0
1565373733406.25,-45,-37,31,0,0,0,0,0
1565373733437.5,-46,-35,30,0,0,0,0,0
1565373733468.75,-46,-32,30,0,0,0,0,0
1565373733500,-50,-29,28,0,0,0,0,0
1565373733531.25,-52,-28,26,0,0,0,0,0
1565373733562.5,-52,-28,26,0,0,0,0,0
1565373733593.75,-53,-28,25,0,0,0,0,0
1565373733625,-54,-28,25,0,0,0,0,0
1565373733656.25,-55,-29,25,0,0,0,0,0
1565373733687.5,-55,-29,26,0,0,0,0,0
1565373733718.75,-54,-30,26,0,0,0,0,0
1565373733750,-52,-30,26,0,0,0,0,0
1565373733781.25,-49,-30,26,0,0,0,0,0
1565373733812.5,-49,-31,26,0,0,0,0,0
1565373733843.75,-48,-31,26,0,0,0,0,0
1565373733875,-49,-30,26,0,0,0,0,0
1565373733906.25,-52,-30,26,0,0,0,0,0
1565373733937.5,-51,-31,26,0,0,0,0,0
1565373733968.75,-50,-31,25,0,0,0,0,0
1565373734000,-51,-29,25,0,0,0,0,0
1565373734031.25,-53,-29,24,0,0,0,0,0
1565373734062.5,-54,-28,24,0,0,0,0,0
1565373734093.75,-56,-28,24,0,0,0,0,0
1565373734125,-57,-28,24,0,0,0,0,0
1565373734156.25,-55,-29,25,0,0,0,0,0
1565373734187.5,-52,-29,25,0,0,0,0,0
1565373734218.75,-50,-27,24,0,0,0,0,0
1565373734250,-54,-25,23,0,0,0,0,0
1565373734281.25,-56,-25,22,0,0,0,0,0
1565373734312.5,-59,-26,23,0,0,0,0,0
1565373734343.75,-60,-27,24,0,0,0,0,0
1565373734375,-60,-27,24,0,0,0,0,0
1565373734406.25,-57,-26,24,0,0,0,0,0
1565373734437.5,-54,-26,25,0,0,0,0,0
1565373734468.75,-54,-27,25,0,0,0,0,0
1565373734500,-54,-30,27,0,0,0,0,0
1565373734531.25,-51,-30,27,0,0,0,0,0
1565373734562.5,-50,-29,26,0,0,0,0,0
1565373734593.75,-51,-28,25,0,0,0,0,0
1565373734625,-53,-28,24,0,0,0,0,0
1565373734656.25,-53,-29,24,0,0,0,0,0
1565373734687.5,-54,-33,25,0,0,0,0,0
1565373734718.75,-51,-34,27,0,0,0,0,0
1565373734750,-43,-36,28,0,0,0,0,0
1565373734781.25,-40,-37,29,0,0,0,0,0
1565373734812.5,-43,-37,28,0,0,0,0,0
1565373734843.75,-47,-37,27,0,0,0,0,0
1565373734875,-48,-39,27,0,0,0,0,0
1565373734906.25,-49,-39,28,0,0,0,0,0
1565373734937.5,-46,-41,28,0,0,0,0,0
1565373734968.75,-41,-39,28,0,0,0,0,0
1565373735000,-40,-36,29,0,0,0,0,0
1565373735031.25,-43,-26,30,0,0,0,0,0
1565373735062.5,-43,-12,32,0,0,0,0,0
1565373735093.75,-47,-12,37,0,0,0,0,0
1565373735125,-45,-17,41,0,0,0,0,0
1565373735156.25,-25,-27,46,0,0,0,0,0
1565373735187.5,-13,-36,52,0,0,0,0,0
1565373735218.75,-26,-63,46,0,0,0,0,0
1565373735250,-50,-82,31,0,0,0,0,0
1565373735281.25,-34,-83,35,0,0,0,0,0
1565373735312.5,-31,-71,31,0,0,0,0,0
1565373735343.75,-24,-50,27,0,0,0,0,0
1565373735375,-25,-42,29,0,0,0,0,0
1565373735406.25,-25,-28,34,0,0,0,0,0
1565373735437.5,-32,-23,41,0,0,0,0,0
1565373735468.75,-34,-26,46,0,0,0,0,0
1565373735500,-45,-38,48,0,0,0,0,0
1565373735531.25,-36,-44,52,0,0,0,0,0
1565373735562.5,-20,-60,64,0,0,0,0,0
1565373735593.75,-20,-58,57,0,0,0,0,0
1565373735625,-18,-52,55,0,0,0,0,0
1565373735656.25,-17,-42,47,0,0,0,0,0
1565373735687.5,-17,-33,40,0,0,0,0,0
1565373735718.75,-20,-29,39,0,0,0,0,0
1565373735750,-27,-23,40,0,0,0,0,0
1565373735781.25,-31,-21,43,0,0,0,0,0
1565373735812.5,-35,-23,43,0,0,0,0,0
1565373735843.75,-48,-21,43,0,0,0,0,0
1565373735875,-50,-14,42,0,0,0,0,0
1565373735906.25,-50,-10,41,0,0,0,0,0
1565373735937.5,-39,-4,54,0,0,0,0,0
1565373735968.75,-48,-2,56,0,0,0,0,0
1565373736000,-52,-3,58,0,0,0,0,0
1565373736031.25,-56,-3,56,0,0,0,0,0
1565373736062.5,-53,-3,56,0,0,0,0,0
1565373736093.75,-45,-3,58,0,0,0,0,0
1565373736125,-37,-2,54,0,0,0,0,0
1565373736156.25,-32,-2,54,0,0,0,0,0
1565373736187.5,-25,0,51,0,0,0,0,0
1565373736218.75,-22,-1,52,0,0,0,0,0
1565373736250,-24,-3,53,0,0,0,0,0
1565373736281.25,-29,-5,52,0,0,0,0,0
1565373736312.5,-33,-8,53,0,0,0,0,0
1565373736343.75,-33,-8,55,0,0,0,0,0
1565373736375,-28,-8,58,0,0,0,0,0
1565373736406.25,-30,-10,60,0,0,0,0,0
1565373736437.5,-29,-10,61,0,0,0,0,0
1565373736468.75,-24,-8,61,0,0,0,0,0
1565373736500,-22,-7,59,0,0,0,0,0
1565373736531.25,-22,-6,58,0,0,0,0,0
1565373736562.5,-24,-6,57,0,0,0,0,0
1565373736593.75,-24,-8,57,0,0,0,0,0
1565373736625,-25,-8,57,0,0,0,0,0
1565373736656.25,-28,-10,58,0,0,0,0,0
1565373736687.5,-27,-11,59,0,0,0,0,0
1565373736718.75,-29,-12,58,0,0,0,0,0
1565373736750,-27,-14,59,0,0,0,0,0
1565373736781.25,-25,-14,58,0,0,0,0,0
1565373736812.5,-25,-12,56,0,0,0,0,0
1565373736843.75,-25,-12,54,0,0,0,0,0
1565373736875,-27,-13,52,0,0,0,0,0
1565373736906.25,-30,-14,51,0,0,0,0,0
1565373736937.5,-30,-16,49,0,0,0,0,0
1565373736968.75,-28,-17,48,0,0,0,0,0
1565373737000,-30,-21,44,0,0,0,0,0
1565373737031.25,-35,-23,41,0,0,0,0,0
1565373737062.5,-37,-24,41,0,0,0,0,0
1565373737093.75,-35,-26,41,0,0,0,0,0
1565373737125,-38,-27,45,0,0,0,0,0
1565373737156.25,-39,-27,49,0,0,0,0,0
1565373737187.5,-49,-33,49,0,0,0,0,0
1565373737218.75,-54,-38,44,0,0,0,0,0
1565373737250,-51,-38,43,0,0,0,0,0
1565373737281.25,-42,-37,55,0,0,0,0,0
1565373737312.5,-45,-37,53,0,0,0,0,0
1565373737343.75,-52,-35,41,0,0,0,0,0
1565373737375,-49,-36,33,0,0,0,0,0
1565373737406.25,-43,-37,34,0,0,0,0,0
1565373737437.5,-35,-41,37,0,0,0,0,0
1565373737468.75,-38,-42,33,0,0,0,0,0
1565373737500,-41,-42,31,0,0,0,0,0
1565373737531.25,-41,-42,30,0,0,0,0,0
1565373737562.5,-37,-43,31,0,0,0,0,0
1565373737593.75,-36,-43,30,0,0,0,0,0
1565373737625,-38,-43,29,0,0,0,0,0
1565373737656.25,-38,-41,28,0,0,0,0,0
1565373737687.5,-38,-40,27,0,0,0,0,0
1565373737718.75,-39,-39,27,0,0,0,0,0
1565373737750,-39,-40,27,0,0,0,0,0
1565373737781.25,-39,-40,28,0,0,0,0,0
1565373737812.5,-38,-42,29,0,0,0,0,0
1565373737843.75,-40,-44,29,0,0,0,0,0
1565373737875,-39,-45,30,0,0,0,0,0
1565373737906.25,-38,-45,32,0,0,0,0,0
1565373737937.5,-37,-43,33,0,0,0,0,0
1565373737968.75,-39,-43,30,0,0,0,0,0
1565373738000,-38,-43,24,0,0,0,0,0
1565373738031.25,-38,-42,25,0,0,0,0,0
1565373738062.5,-42,-43,29,0,0,0,0,0
1565373738093.75,-42,-46,32,0,0,0,0,0
1565373738125,-40,-49,33,0,0,0,0,0
1565373738156.25,-35,-51,34,0,0,0,0,0
1565373738187.5,-32,-46,31,0,0,0,0,0
1565373738218.75,-34,-44,30,0,0,0,0,0
1565373738250,-39,-43,26,0,0,0,0,0
1565373738281.25,-38,-45,25,0,0,0,0,0
1565373738312.5,-36,-47,25,0,0,0,0,0
1565373738343.75,-33,-50,26,0,0,0,0,0
1565373738375,-33,-51,25,0,0,0,0,0
1565373738406.25,-34,-51,25,0,0,0,0,0
1565373738437.5,-37,-51,23,0,0,0,0,0
1565373738468.75,-39,-52,22,0,0,0,0,0
1565373738500,-38,-51,22,0,0,0,0,0
1565373738531.25,-36,-51,23,0,0,0,0,0
1565373738562.5,-35,-51,23,0,0,0,0,0
1565373738593.75,-36,-51,21,0,0,0,0,0
1565373738625,-36,-51,21,0,0,0,0,0
1565373738656.25,-35,-51,21,0,0,0,0,0
1565373738687.5,-33,-49,21,0,0,0,0,0
1565373738718.75,-35,-47,20,0,0,0,0,0
1565373738750,-35,-46,20,0,0,0,0,0
1565373738781.25,-36,-47,20,0,0,0,0,0
1565373738812.5,-36,-49,22,0,0,0,0,0
1565373738843.75,-37,-51,23,0,0,0,0,0
1565373738875,-36,-53,24,0,0,0,0,0
1565373738906.25,-35,-52,24,0,0,0,0,0
1565373738937.5,-35,-50,24,0,0,0,0,0
1565373738968.75,-35,-48,23,0,0,0,0,0
1565373739000,-34,-47,23,0,0,0,0,0
1565373739031.25,-34,-47,23,0,0,0,0,0
1565373739062.5,-36,-48,23,0,0,0,0,0
1565373739093.75,-38,-49,23,0,0,0,0,0
1565373739125,-38,-50,23,0,0,0,0,0
1565373739156.25,-38,-51,23,0,0,0,0,0
1565373739187.5,-38,-51,24,0,0,0,0,0
1565373739218.75,-37,-50,23,0,0,0,0,0
1565373739250,-37,-49,23,0,0,0,0,0
1565373739281.25,-37,-48,23,0,0,0,0,0
1565373739312.5,-35,-48,23,0,0,0,0,0
1565373739343.75,-35,-49,23,0,0,0,0,0
1565373739375,-36,-51,24,0,0,0,0,0
1565373739406.25,-35,-52,24,0,0,0,0,0
1565373739437.5,-31,-50,24,0,0,0,0,0
1565373739468.75,-31,-49,24,0,0,0,0,0
1565373739500,-32,-48,23,0,0,0,0,0
1565373739531.25,-32,-50,23,0,0,0,0,0
1565373739562.5,-31,-51,23,0,0,0,0,0
1565373739593.75,-30,-52,24,0,0,0,0,0
1565373739625,-32,-55,24,0,0,0,0,0
1565373739656.25,-31,-56,24,0,0,0,0,0
1565373739687.5,-26,-57,24,0,0,0,0,0
1565373739718.75,-25,-55,24,0,0,0,0,0
1565373739750,-25,-52,22,0,0,0,0,0
1565373739781.25,-29,-47,20,0,0,0,0,0
1565373739812.5,-34,-47,19,0,0,0,0,0
1565373739843.75,-33,-47,20,0,0,0,0,0
1565373739875,-33,-49,21,0,0,0,0,0
1565373739906.25,-34,-51,22,0,0,0,0,0
1565373739937.5,-37,-51,22,0,0,0,0,0
1565373739968.75,-43,-49,17,0,0,0,0,0
1565373740000,-51,-43,18,0,0,0,0,0
1565373740031.25,-49,-45,19,0,0,0,0,0
1565373740062.5,-42,-55,23,0,0,0,0,0
1565373740093.75,-39,-58,25,0,0,0,0,0
1565373740125,-32,-58,27,0,0,0,0,0
1565373740156.25,-22,-75,30,0,0,0,0,0
1565373740187.5,-20,-90,35,0,0,0,0,0
1565373740218.75,-19,-81,30,0,0,0,0,0
1565373740250,-16,-57,25,0,0,0,0,0
1565373740281.25,-17,-47,23,0,0,0,0,0
1565373740312.5,-32,-28,9,0,0,0,0,0
1565373740343.75,-47,-19,-4,0,0,0,0,0
1565373740375,-45,-20,-3,0,0,0,0,0
1565373740406.25,-51,-35,10,0,0,0,0,0
1565373740437.5,-54,-50,11,0,0,0,0,0
1565373740468.75,-57,-47,5,0,0,0,0,0
1565373740500,-58,-42,-1,0,0,0,0,0
1565373740531.25,-57,-40,1,0,0,0,0,0
1565373740562.5,-54,-40,3,0,0,0,0,0
1565373740593.75,-50,-39,5,0,0,0,0,0
1565373740625,-49,-39,7,0,0,0,0,0
1565373740656.25,-53,-40,11,0,0,0,0,0
1565373740687.5,-58,-45,15,0,0,0,0,0
1565373740718.75,-59,-46,17,0,0,0,0,0
1565373740750,-57,-45,23,0,0,0,0,0
1565373740781.25,-44,-38,26,0,0,0,0,0
1565373740812.5,-41,-45,47,0,0,0,0,0
1565373740843.75,-6,-40,43,0,0,0,0,0
1565373740875,-41,-50,16,0,0,0,0,0
1565373740906.25,-37,-63,22,0,0,0,0,0
1565373740937.5,-36,-64,36,0,0,0,0,0
1565373740968.75,-38,-55,22,0,0,0,0,0
1565373741000,-41,-50,20,0,0,0,0,0
1565373741031.25,-41,-44,17,0,0,0,0,0
1565373741062.5,-41,-42,14,0,0,0,0,0
1565373741093.75,-39,-40,12,0,0,0,0,0
1565373741125,-31,-41,13,0,0,0,0,0
1565373741156.25,-32,-43,16,0,0,0,0,0
1565373741187.5,-36,-45,16,0,0,0,0,0
1565373741218.75,-43,-52,16,0,0,0,0,0
1565373741250,-45,-55,17,0,0,0,0,0
1565373741281.25,-42,-55,21,0,0,0,0,0
1565373741312.5,-33,-47,21,0,0,0,0,0
1565373741343.75,-32,-45,22,0,0,0,0,0
1565373741375,-34,-42,20,0,0,0,0,0
1565373741406.25,-36,-43,21,0,0,0,0,0
1565373741437.5,-37,-44,22,0,0,0,0,0
1565373741468.75,-39,-50,24,0,0,0,0,0
1565373741500,-37,-53,29,0,0,0,0,0
1565373741531.25,-30,-52,38,0,0,0,0,0
1565373741562.5,-41,-53,32,0,0,0,0,0
1565373741593.75,-46,-53,25,0,0,0,0,0
1565373741625,-47,-55,25,0,0,0,0,0
1565373741656.25,-39,-53,27,0,0,0,0,0
1565373741687.5,-31,-47,28,0,0,0,0,0
1565373741718.75,-32,-46,27,0,0,0,0,0
1565373741750,-37,-46,22,0,0,0,0,0
1565373741781.25,-33,-47,22,0,0,0,0,0
1565373741812.5,-31,-47,23,0,0,0,0,0
1565373741843.75,-28,-49,25,0,0,0,0,0
1565373741875,-25,-50,25,0,0,0,0,0
1565373741906.25,-26,-52,25,0,0,0,0,0
1565373741937.5,-29,-56,25,0,0,0,0,0
1565373741968.75,-30,-58,26,0,0,0,0,0
1565373742000,-29,-58,26,0,0,0,0,0
1565373742031.25,-27,-52,26,0,0,0,0,0
1565373742062.5,-27,-50,26,0,0,0,0,0
1565373742093.75,-26,-49,25,0,0,0,0,0
1565373742125,-25,-53,25,0,0,0,0,0
1565373742156.25,-25,-56,26,0,0,0,0,0
1565373742187.5,-24,-60,27,0,0,0,0,0
1565373742218.75,-22,-59,28,0,0,0,0,0
1565373742250,-24,-57,26,0,0,0,0,0
1565373742281.25,-28,-51,23,0,0,0,0,0
1565373742312.5,-32,-47,22,0,0,0,0,0
1565373742343.75,-33,-46,23,0,0,0,0,0
1565373742375,-31,-44,23,0,0,0,0,0
1565373742406.25,-26,-50,21,0,0,0,0,0
1565373742437.5,-23,-57,21,0,0,0,0,0
1565373742468.75,-13,-64,21,0,0,0,0,0
1565373742500,-5,-65,21,0,0,0,0,0
1565373742531.25,-3,-64,21,0,0,0,0,0
1565373742562.5,-11,-61,20,0,0,0,0,0
1565373742593.75,-16,-61,19,0,0,0,0,0
1565373742625,-22,-62,20,0,0,0,0,0
1565373742656.25,-21,-62,20,0,0,0,0,0
1565373742687.5,-17,-60,21,0,0,0,0,0
1565373742718.75,-15,-57,23,0,0,0,0,0
1565373742750,-17,-58,22,0,0,0,0,0
1565373742781.25,-17,-58,22,0,0,0,0,0
1565373742812.5,-16,-58,22,0,0,0,0,0
1565373742843.75,-21,-61,23,0,0,0,0,0
1565373742875,-22,-62,22,0,0,0,0,0
1565373742906.25,-23,-62,24,0,0,0,0,0
1565373742937.5,-22,-60,24,0,0,0,0,0
1565373742968.75,-23,-58,24,0,0,0,0,0
1565373743000,-25,-55,22,0,0,0,0,0
1565373743031.25,-23,-54,22,0,0,0,0,0
1565373743062.5,-22,-54,23,0,0,0,0,0
1565373743093.75,-21,-54,23,0,0,0,0,0
1565373743125,-22,-53,26,0,0,0,0,0
1565373743156.25,-24,-54,26,0,0,0,0,0
1565373743187.5,22,-53,9,0,0,0,0,0
1565373743218.75,-16,-53,-22,0,0,0,0,0
1565373743250,-62,-44,-1,0,0,0,0,0
1565373743281.25,-65,-56,51,0,0,0,0,0
1565373743312.5,-47,-57,51,0,0,0,0,0
1565373743343.75,-29,-59,9,0,0,0,0,0
1565373743375,34,-55,18,0,0,0,0,0
1565373743406.25,-12,-46,6,0,0,0,0,0
1565373743437.5,-51,-52,27,0,0,0,0,0
1565373743468.75,-56,-55,13,0,0,0,0,0
1565373743500,-46,-49,4,0,0,0,0,0
1565373743531.25,-23,-56,12,0,0,0,0,0
1565373743562.5,-9,-59,27,0,0,0,0,0
1565373743593.75,6,-61,39,0,0,0,0,0
1565373743625,-12,-60,23,0,0,0,0,0
1565373743656.25,-22,-57,30,0,0,0,0,0
1565373743687.5,-14,-54,41,0,0,0,0,0
1565373743718.75,-25,-51,32,0,0,0,0,0
1565373743750,-42,-46,16,0,0,0,0,0
1565373743781.25,-42,-44,14,0,0,0,0,0
1565373743812.5,-28,-43,24,0,0,0,0,0
1565373743843.75,-19,-45,34,0,0,0,0,0
1565373743875,-33,-50,31,0,0,0,0,0
1565373743906.25,-41,-45,24,0,0,0,0,0
1565373743937.5,-43,-43,24,0,0,0,0,0
1565373743968.75,-43,-44,23,0,0,0,0,0
1565373744000,-35,-46,25,0,0,0,0,0
1565373744031.25,-32,-46,25,0,0,0,0,0
1565373744062.5,-30,-48,20,0,0,0,0,0
1565373744093.75,-26,-60,20,0,0,0,0,0
1565373744125,-28,-66,18,0,0,0,0,0
1565373744156.25,-28,-70,16,0,0,0,0,0
1565373744187.5,-29,-66,14,0,0,0,0,0
1565373744218.75,-29,-65,16,0,0,0,0,0
1565373744250,-32,-67,19,0,0,0,0,0
1565373744281.25,-31,-72,15,0,0,0,0,0
1565373744312.5,-23,-69,17,0,0,0,0,0
1565373744343.75,-13,-58,16,0,0,0,0,0
1565373744375,-23,-49,11,0,0,0,0,0
1565373744406.25,-28,-44,10,0,0,0,0,0
1565373744437.5,-30,-39,11,0,0,0,0,0
1565373744468.75,-30,-43,9,0,0,0,0,0
1565373744500,-33,-48,11,0,0,0,0,0
1565373744531.25,-39,-60,12,0,0,0,0,0
1565373744562.5,-38,-63,15,0,0,0,0,0
1565373744593.75,-28,-64,24,0,0,0,0,0
1565373744625,-33,-66,22,0,0,0,0,0
1565373744656.25,-35,-64,22,0,0,0,0,0
1565373744687.5,-41,-61,21,0,0,0,0,0
1565373744718.75,-38,-52,15,0,0,0,0,0
1565373744750,-38,-48,11,0,0,0,0,0
1565373744781.25,-31,-48,42,0,0,0,0,0
1565373744812.5,-29,-47,30,0,0,0,0,0
1565373744843.75,-21,-47,29,0,0,0,0,0
1565373744875,-11,-53,33,0,0,0,0,0
1565373744906.25,-24,-64,26,0,0,0,0,0
1565373744937.5,-23,-67,25,0,0,0,0,0
1565373744968.75,-21,-66,19,0,0,0,0,0
1565373745000,-21,-60,19,0,0,0,0,0
1565373745031.25,-22,-56,18,0,0,0,0,0
1565373745062.5,-22,-47,20,0,0,0,0,0
1565373745093.75,-25,-38,14,0,0,0,0,0
1565373745125,-27,-39,14,0,0,0,0,0
1565373745156.25,-22,-39,17,0,0,0,0,0
1565373745187.5,-24,-40,14,0,0,0,0,0
1565373745218.75,-27,-42,19,0,0,0,0,0
1565373745250,-23,-44,17,0,0,0,0,0
1565373745281.25,-25,-54,11,0,0,0,0,0
1565373745312.5,-36,-70,2,0,0,0,0,0
1565373745343.75,-45,-83,-1,0,0,0,0,0
1565373745375,-48,-92,-8,0,0,0,0,0
1565373745406.25,-39,-92,-6,0,0,0,0,0
1565373745437.5,-22,-84,9,0,0,0,0,0
1565373745468.75,-18,-77,11,0,0,0,0,0
1565373745500,-20,-66,10,0,0,0,0,0
1565373745531.25,-21,-56,5,0,0,0,0,0
1565373745562.5,-22,-53,2,0,0,0,0,0
1565373745593.75,-24,-46,1,0,0,0,0,0
1565373745625,-31,-42,-4,0,0,0,0,0
1565373745656.25,-30,-45,-4,0,0,0,0,0
1565373745687.5,-34,-57,-3,0,0,0,0,0
1565373745718.75,-44,-77,-2,0,0,0,0,0
1565373745750,-36,-80,4,0,0,0,0,0
1565373745781.25,-26,-68,9,0,0,0,0,0
1565373745812.5,-29,-61,7,0,0,0,0,0
1565373745843.75,-20,-51,15,0,0,0,0,0
1565373745875,-17,-45,15,0,0,0,0,0
1565373745906.25,-12,-40,22,0,0,0,0,0
1565373745937.5,-12,-37,20,0,0,0,0,0
1565373745968.75,-20,-43,23,0,0,0,0,0
1565373746000,-24,-52,22,0,0,0,0,0
1565373746031.25,-24,-59,25,0,0,0,0,0
1565373746062.5,-23,-70,26,0,0,0,0,0
1565373746093.75,-23,-73,27,0,0,0,0,0
1565373746125,-32,-72,24,0,0,0,0,0
1565373746156.25,-36,-62,23,0,0,0,0,0
1565373746187.5,-38,-57,21,0,0,0,0,0
1565373746218.75,-33,-50,24,0,0,0,0,0
1565373746250,-26,-47,27,0,0,0,0,0
1565373746281.25,-27,-48,29,0,0,0,0,0
1565373746312.5,-27,-54,29,0,0,0,0,0
1565373746343.75,-22,-61,30,0,0,0,0,0
1565373746375,-20,-63,30,0,0,0,0,0
1565373746406.25,-22,-62,23,0,0,0,0,0
1565373746437.5,-23,-61,17,0,0,0,0,0
1565373746468.75,-23,-59,18,0,0,0,0,0
1565373746500,-18,-53,23,0,0,0,0,0
1565373746531.25,-15,-50,24,0,0,0,0,0
1565373746562.5,-12,-50,25,0,0,0,0,0
1565373746593.75,-12,-53,22,0,0,0,0,0
1565373746625,-13,-54,21,0,0,0,0,0
1565373746656.25,-16,-54,22,0,0,0,0,0
1565373746687.5,-19,-53,18,0,0,0,0,0
1565373746718.75,-21,-54,16,0,0,0,0,0
1565373746750,-21,-57,19,0,0,0,0,0
1565373746781.25,-30,-57,27,0,0,0,0,0
1565373746812.5,-24,-56,29,0,0,0,0,0
1565373746843.75,-28,-55,26,0,0,0,0,0
1565373746875,-28,-61,30,0,0,0,0,0
1565373746906.25,-26,-62,31,0,0,0,0,0
1565373746937.5,-20,-62,33,0,0,0,0,0
1565373746968.75,-18,-63,33,0,0,0,0,0
1565373747000,-18,-62,31,0,0,0,0,0
1565373747031.25,-17,-56,28,0,0,0,0,0
1565373747062.5,-18,-53,25,0,0,0,0,0
1565373747093.75,-20,-53,25,0,0,0,0,0
1565373747125,-25,-53,23,0,0,0,0,0
1565373747156.25,-26,-54,22,0,0,0,0,0
1565373747187.5,-25,-60,24,0,0,0,0,0
1565373747218.75,-17,-72,25,0,0,0,0,0
1565373747250,-9,-77,25,0,0,0,0,0
1565373747281.25,4,-76,23,0,0,0,0,0
1565373747312.5,3,-67,18,0,0,0,0,0
1565373747343.75,-4,-60,20,0,0,0,0,0
1565373747375,-13,-46,19,0,0,0,0,0
1565373747406.25,-18,-36,16,0,0,0,0,0
1565373747437.5,-19,-33,15,0,0,0,0,0
1565373747468.75,-20,-31,17,0,0,0,0,0
1565373747500,-28,-38,21,0,0,0,0,0
1565373747531.25,-37,-46,19,0,0,0,0,0
1565373747562.5,-88,-66,19,0,0,0,0,0
1565373747593.75,-87,-57,19,0,0,0,0,0
1565373747625,-71,-38,26,0,0,0,0,0
1565373747656.25,-65,-21,20,0,0,0,0,0
1565373747687.5,-58,-24,18,0,0,0,0,0
1565373747718.75,-56,-33,22,0,0,0,0,0
1565373747750,-49,-56,24,0,0,0,0,0
1565373747781.25,-37,-69,25,0,0,0,0,0
1565373747812.5,0,-65,32,0,0,0,0,0
1565373747843.75,4,-49,21,0,0,0,0,0
1565373747875,-6,-53,6,0,0,0,0,0
1565373747906.25,-30,-73,-13,0,0,0,0,0
1565373747937.5,-49,-87,2,0,0,0,0,0
1565373747968.75,-43,-91,11,0,0,0,0,0
1565373748000,-17,-87,37,0,0,0,0,0
1565373748031.25,-10,-65,40,0,0,0,0,0
1565373748062.5,-14,-53,30,0,0,0,0,0
1565373748093.75,-31,-40,16,0,0,0,0,0
1565373748125,-36,-36,12,0,0,0,0,0
1565373748156.25,-37,-39,13,0,0,0,0,0
1565373748187.5,-31,-49,15,0,0,0,0,0
1565373748218.75,-27,-52,10,0,0,0,0,0
1565373748250,-33,-54,10,0,0,0,0,0
1565373748281.25,-40,-61,14,0,0,0,0,0
1565373748312.5,-27,-56,16,0,0,0,0,0
1565373748343.75,-22,-58,16,0,0,0,0,0
1565373748375,-23,-59,18,0,0,0,0,0
1565373748406.25,-22,-51,20,0,0,0,0,0
1565373748437.5,-21,-50,21,0,0,0,0,0
1565373748468.75,-20,-51,20,0,0,0,0,0
1565373748500,-23,-53,18,0,0,0,0,0
1565373748531.25,-26,-61,21,0,0,0,0,0
1565373748562.5,-27,-64,18,0,0,0,0,0
1565373748593.75,-30,-64,14,0,0,0,0,0
1565373748625,-43,-63,8,0,0,0,0,0
1565373748656.25,-50,-60,6,0,0,0,0,0
1565373748687.5,-51,-59,7,0,0,0,0,0
1565373748718.75,-45,-58,8,0,0,0,0,0
1565373748750,-44,-55,-4,0,0,0,0,0
1565373748781.25,-69,-53,-21,0,0,0,0,0
1565373748812.5,-106,-40,-40,0,0,0,0,0
1565373748843.75,-65,-34,-22,0,0,0,0,0
1565373748875,-61,-39,-13,0,0,0,0,0
1565373748906.25,-63,-54,-2,0,0,0,0,0
1565373748937.5,-50,-59,-3,0,0,0,0,0
1565373748968.75,-46,-61,-7,0,0,0,0,0
1565373749000,-84,-87,-4,0,0,0,0,0
1565373749031.25,27,-90,-10,0,0,0,0,0
1565373749062.5,7,-82,-7,0,0,0,0,0
1565373749093.75,34,-56,34,0,0,0,0,0
1565373749125,-31,-44,13,0,0,0,0,0
1565373749156.25,-50,-47,9,0,0,0,0,0
1565373749187.5,-37,-51,25,0,0,0,0,0
1565373749218.75,-49,-54,33,0,0,0,0,0
1565373749250,-46,-51,26,0,0,0,0,0
1565373749281.25,-38,-48,21,0,0,0,0,0
1565373749312.5,-32,-49,23,0,0,0,0,0
1565373749343.75,-29,-54,19,0,0,0,0,0
1565373749375,-26,-54,18,0,0,0,0,0
1565373749406.25,-24,-51,21,0,0,0,0,0
1565373749437.5,-31,-51,20,0,0,0,0,0
1565373749468.75,-38,-46,16,0,0,0,0,0
1565373749500,-33,-42,15,0,0,0,0,0
1565373749531.25,-45,-49,15,0,0,0,0,0
1565373749562.5,-43,-59,16,0,0,0,0,0
1565373749593.75,-29,-72,19,0,0,0,0,0
1565373749625,-4,-68,34,0,0,0,0,0
1565373749656.25,7,-54,32,0,0,0,0,0
1565373749687.5,3,-56,27,0,0,0,0,0
1565373749718.75,-5,-62,16,0,0,0,0,0
1565373749750,-7,-63,12,0,0,0,0,0
1565373749781.25,-15,-63,8,0,0,0,0,0
1565373749812.5,-23,-58,13,0,0,0,0,0
1565373749843.75,-24,-56,14,0,0,0,0,0
1565373749875,-20,-54,14,0,0,0,0,0
1565373749906.25,-22,-54,14,0,0,0,0,0
1565373749937.5,-22,-51,16,0,0,0,0,0
1565373749968.75,-23,-51,19,0,0,0,0,0
1565373750000,-12,-57,24,0,0,0,0,0
1565373750031.25,-28,-59,32,0,0,0,0,0
1565373750062.5,-34,-59,48,0,0,0,0,0
1565373750093.75,-52,-54,30,0,0,0,0,0
1565373750125,-32,-57,25,0,0,0,0,0
1565373750156.25,-40,-67,6,0,0,0,0,0
1565373750187.5,-41,-68,21,0,0,0,0,0
1565373750218.75,-40,-67,24,0,0,0,0,0
1565373750250,-34,-70,28,0,0,0,0,0
1565373750281.25,-25,-72,26,0,0,0,0,0
1565373750312.5,-18,-68,24,0,0,0,0,0
1565373750343.75,-12,-56,19,0,0,0,0,0
1565373750375,-16,-47,13,0,0,0,0,0
1565373750406.25,-18,-43,11,0,0,0,0,0
1565373750437.5,-21,-39,9,0,0,0,0,0
1565373750468.75,-20,-38,9,0,0,0,0,0
1565373750500,-17,-38,11,0,0,0,0,0
1565373750531.25,-17,-48,15,0,0,0,0,0
1565373750562.5,-18,-58,17,0,0,0,0,0
1565373750593.75,-21,-81,21,0,0,0,0,0
1565373750625,-18,-64,31,0,0,0,0,0
1565373750656.25,-25,-62,35,0,0,0,0,0
1565373750687.5,-32,-71,41,0,0,0,0,0
1565373750718.75,-8,-64,32,0,0,0,0,0
1565373750750,2,-58,32,0,0,0,0,0
1565373750781.25,7,-57,36,0,0,0,0,0
1565373750812.5,-10,-55,39,0,0,0,0,0
1565373750843.75,-30,-52,30,0,0,0,0,0
1565373750875,-25,-46,30,0,0,0,0,0
1565373750906.25,-22,-44,28,0,0,0,0,0
1565373750937.5,-19,-43,28,0,0,0,0,0
1565373750968.75,-17,-44,27,0,0,0,0,0
1565373751000,-14,-45,26,0,0,0,0,0
1565373751031.25,-14,-46,26,0,0,0,0,0
1565373751062.5,-15,-46,26,0,0,0,0,0
1565373751093.75,-16,-50,26,0,0,0,0,0
1565373751125,-15,-60,28,0,0,0,0,0
1565373751156.25,-14,-55,29,0,0,0,0,0
1565373751187.5,-19,-60,30,0,0,0,0,0
1565373751218.75,-26,-59,29,0,0,0,0,0
1565373751250,-29,-59,25,0,0,0,0,0
1565373751281.25,-33,-61,25,0,0,0,0,0
1565373751312.5,-38,-79,24,0,0,0,0,0
1565373751343.75,-29,-79,20,0,0,0,0,0
1565373751375,-23,-75,22,0,0,0,0,0
1565373751406.25,-17,-63,24,0,0,0,0,0
1565373751437.5,-14,-54,12,0,0,0,0,0
1565373751468.75,-14,-52,6,0,0,0,0,0
1565373751500,-28,-37,-8,0,0,0,0,0
1565373751531.25,-43,-39,-2,0,0,0,0,0
1565373751562.5,-36,-52,7,0,0,0,0,0
1565373751593.75,-11,-61,12,0,0,0,0,0
1565373751625,-3,-69,15,0,0,0,0,0
1565373751656.25,-7,-79,17,0,0,0,0,0
1565373751687.5,-19,-101,24,0,0,0,0,0
1565373751718.75,-27,-82,32,0,0,0,0,0
1565373751750,-30,-75,37,0,0,0,0,0
1565373751781.25,-11,-80,40,0,0,0,0,0
1565373751812.5,9,-79,37,0,0,0,0,0
1565373751843.75,30,-61,28,0,0,0,0,0
1565373751875,17,-47,24,0,0,0,0,0
1565373751906.25,1,-43,22,0,0,0,0,0
1565373751937.5,-31,-33,21,0,0,0,0,0
1565373751968.75,-33,-30,22,0,0,0,0,0
1565373752000,-24,-35,22,0,0,0,0,0
1565373752031.25,-19,-42,24,0,0,0,0,0
1565373752062.5,-10,-54,27,0,0,0,0,0
1565373752093.75,-6,-59,29,0,0,0,0,0
1565373752125,-5,-63,33,0,0,0,0,0
1565373752156.25,-16,-61,33,0,0,0,0,0
1565373752187.5,-22,-57,30,0,0,0,0,0
1565373752218.75,-28,-58,25,0,0,0,0,0
1565373752250,-25,-77,29,0,0,0,0,0
1565373752281.25,-21,-77,31,0,0,0,0,0
1565373752312.5,-21,-55,29,0,0,0,0,0
1565373752343.75,-27,-42,28,0,0,0,0,0
1565373752375,-32,-34,21,0,0,0,0,0
1565373752406.25,-27,-47,19,0,0,0,0,0
1565373752437.5,-25,-57,21,0,0,0,0,0
1565373752468.75,-17,-77,26,0,0,0,0,0
1565373752500,-2,-79,28,0,0,0,0,0
1565373752531.25,3,-71,27,0,0,0,0,0
1565373752562.5,-5,-51,20,0,0,0,0,0
1565373752593.75,-30,-43,7,0,0,0,0,0
1565373752625,-41,-44,1,0,0,0,0,0
1565373752656.25,-45,-47,-2,0,0,0,0,0
1565373752687.5,-23,-53,6,0,0,0,0,0
1565373752718.75,-22,-61,7,0,0,0,0,0
1565373752750,-21,-73,15,0,0,0,0,0
1565373752781.25,0,-75,20,0,0,0,0,0
1565373752812.5,5,-75,25,0,0,0,0,0
1565373752843.75,-6,-79,33,0,0,0,0,0
1565373752875,-26,-68,31,0,0,0,0,0
1565373752906.25,-28,-64,31,0,0,0,0,0
1565373752937.5,-20,-70,32,0,0,0,0,0
1565373752968.75,-5,-69,36,0,0,0,0,0
1565373753000,1,-66,35,0,0,0,0,0
1565373753031.25,-3,-53,31,0,0,0,0,0
1565373753062.5,-37,-49,38,0,0,0,0,0
1565373753093.75,-44,-42,34,0,0,0,0,0
1565373753125,-31,-32,15,0,0,0,0,0
1565373753156.25,-28,-32,8,0,0,0,0,0
1565373753187.5,-15,-35,16,0,0,0,0,0
1565373753218.75,-15,-44,21,0,0,0,0,0
1565373753250,-22,-51,21,0,0,0,0,0
1565373753281.25,-29,-71,20,0,0,0,0,0
1565373753312.5,-19,-85,18,0,0,0,0,0
1565373753343.75,-19,-92,28,0,0,0,0,0
1565373753375,-17,-62,22,0,0,0,0,0
1565373753406.25,-45,-55,14,0,0,0,0,0
1565373753437.5,-57,-58,13,0,0,0,0,0
1565373753468.75,-42,-63,12,0,0,0,0,0
1565373753500,-16,-73,23,0,0,0,0,0
1565373753531.25,-9,-73,30,0,0,0,0,0
1565373753562.5,-14,-61,24,0,0,0,0,0
1565373753593.75,-15,-57,21,0,0,0,0,0
1565373753625,-13,-56,20,0,0,0,0,0
1565373753656.25,-9,-54,20,0,0,0,0,0
1565373753687.5,-6,-51,24,0,0,0,0,0
1565373753718.75,-5,-45,18,0,0,0,0,0
1565373753750,-17,-48,5,0,0,0,0,0
1565373753781.25,-20,-48,7,0,0,0,0,0
1565373753812.5,-21,-52,10,0,0,0,0,0
1565373753843.75,-24,-80,12,0,0,0,0,0
1565373753875,-28,-72,13,0,0,0,0,0
1565373753906.25,-34,-77,18,0,0,0,0,0
1565373753937.5,-27,-84,23,0,0,0,0,0
1565373753968.75,-17,-83,27,0,0,0,0,0
1565373754000,4,-70,40,0,0,0,0,0
1565373754031.25,-2,-47,43,0,0,0,0,0
1565373754062.5,-7,-42,43,0,0,0,0,0
1565373754093.75,-47,-27,28,0,0,0,0,0
1565373754125,-63,-18,10,0,0,0,0,0
1565373754156.25,-65,-22,6,0,0,0,0,0
1565373754187.5,-56,-38,15,0,0,0,0,0
1565373754218.75,-42,-42,21,0,0,0,0,0
1565373754250,-42,-38,9,0,0,0,0,0
1565373754281.25,-67,-37,-18,0,0,0,0,0
1565373754312.5,-69,-40,-10,0,0,0,0,0
1565373754343.75,-72,-47,-16,0,0,0,0,0
1565373754375,-70,-64,-25,0,0,0,0,0
1565373754406.25,-69,-62,-26,0,0,0,0,0
1565373754437.5,-69,-45,-36,0,0,0,0,0
1565373754468.75,-50,-27,-30,0,0,0,0,0
1565373754500,-36,-19,-20,0,0,0,0,0
1565373754531.25,-41,-11,-27,0,0,0,0,0
1565373754562.5,-42,-8,-27,0,0,0,0,0
1565373754593.75,-35,-7,-25,0,0,0,0,0
1565373754625,-35,-7,-27,0,0,0,0,0
1565373754656.25,-35,-8,-33,0,0,0,0,0
1565373754687.5,-32,-7,-33,0,0,0,0,0
1565373754718.75,-37,-11,-36,0,0,0,0,0
1565373754750,-36,-12,-32,0,0,0,0,0
1565373754781.25,-37,-9,-34,0,0,0,0,0
1565373754812.5,-45,-7,-45,0,0,0,0,0
1565373754843.75,-45,-10,-42,0,0,0,0,0
1565373754875,-45,-14,-37,0,0,0,0,0
1565373754906.25,-49,-31,-16,0,0,0,0,0
1565373754937.5,-64,-32,-18,0,0,0,0,0
1565373754968.75,-70,-32,-18,0,0,0,0,0
1565373755000,-64,-29,-14,0,0,0,0,0
1565373755031.25,-42,-26,29,0,0,0,0,0
1565373755062.5,-107,-48,11,0,0,0,0,0
1565373755093.75,-97,-63,-7,0,0,0,0,0
1565373755125,-75,-62,8,0,0,0,0,0
1565373755156.25,-30,-44,26,0,0,0,0,0
1565373755187.5,-9,-12,34,0,0,0,0,0
1565373755218.75,-29,-13,35,0,0,0,0,0
1565373755250,-51,-20,23,0,0,0,0,0
1565373755281.25,-81,-41,7,0,0,0,0,0
1565373755312.5,-83,-48,-5,0,0,0,0,0
1565373755343.75,-71,-53,-9,0,0,0,0,0
1565373755375,-62,-47,-19,0,0,0,0,0
1565373755406.25,-62,-47,-16,0,0,0,0,0
1565373755437.5,-46,-40,-7,0,0,0,0,0
1565373755468.75,-35,-33,0,0,0,0,0,0
1565373755500,-35,-34,3,0,0,0,0,0
1565373755531.25,-38,-41,6,0,0,0,0,0
1565373755562.5,-42,-45,8,0,0,0,0,0
1565373755593.75,-45,-48,9,0,0,0,0,0
1565373755625,-45,-53,14,0,0,0,0,0
1565373755656.25,-39,-58,21,0,0,0,0,0
1565373755687.5,-34,-60,24,0,0,0,0,0
1565373755718.75,-30,-61,30,0,0,0,0,0
1565373755750,-25,-59,33,0,0,0,0,0
1565373755781.25,-19,-54,33,0,0,0,0,0
1565373755812.5,-28,-52,35,0,0,0,0,0
1565373755843.75,-32,-50,35,0,0,0,0,0
1565373755875,-36,-46,28,0,0,0,0,0
1565373755906.25,-37,-40,28,0,0,0,0,0
1565373755937.5,-32,-32,26,0,0,0,0,0
1565373755968.75,-38,-28,21,0,0,0,0,0
1565373756000,-57,-41,14,0,0,0,0,0
1565373756031.25,-59,-41,11,0,0,0,0,0
1565373756062.5,-71,-41,1,0,0,0,0,0
1565373756093.75,-89,-45,-18,0,0,0,0,0
1565373756125,-90,-51,-19,0,0,0,0,0
1565373756156.25,-68,-55,-10,0,0,0,0,0
1565373756187.5,-51,-47,0,0,0,0,0,0
1565373756218.75,-48,-44,2,0,0,0,0,0
1565373756250,-44,-47,5,0,0,0,0,0
1565373756281.25,-44,-50,6,0,0,0,0,0
1565373756312.5,-43,-56,9,0,0,0,0,0
1565373756343.75,-40,-55,11,0,0,0,0,0
1565373756375,-39,-53,11,0,0,0,0,0
1565373756406.25,-41,-48,12,0,0,0,0,0
1565373756437.5,-46,-44,12,0,0,0,0,0
1565373756468.75,-51,-46,12,0,0,0,0,0
1565373756500,-56,-57,15,0,0,0,0,0
1565373756531.25,-45,-54,19,0,0,0,0,0
1565373756562.5,-38,-50,22,0,0,0,0,0
1565373756593.75,-21,-38,25,0,0,0,0,0
1565373756625,-17,-36,22,0,0,0,0,0
1565373756656.25,-20,-38,21,0,0,0,0,0
1565373756687.5,-30,-46,18,0,0,0,0,0
1565373756718.75,-42,-59,19,0,0,0,0,0
1565373756750,-43,-60,18,0,0,0,0,0
1565373756781.25,-43,-61,20,0,0,0,0,0
1565373756812.5,-47,-59,17,0,0,0,0,0
1565373756843.75,-47,-58,15,0,0,0,0,0
1565373756875,-46,-52,12,0,0,0,0,0
1565373756906.25,-46,-46,10,0,0,0,0,0
1565373756937.5,-47,-43,9,0,0,0,0,0
1565373756968.75,-49,-38,9,0,0,0,0,0
1565373757000,-49,-34,10,0,0,0,0,0
1565373757031.25,-50,-33,9,0,0,0,0,0
1565373757062.5,-52,-34,11,0,0,0,0,0
1565373757093.75,-56,-40,13,0,0,0,0,0
1565373757125,-57,-54,16,0,0,0,0,0
1565373757156.25,-53,-61,20,0,0,0,0,0
1565373757187.5,-49,-58,20,0,0,0,0,0
1565373757218.75,-45,-56,19,0,0,0,0,0
1565373757250,-48,-60,19,0,0,0,0,0
1565373757281.25,-45,-58,20,0,0,0,0,0
1565373757312.5,-35,-49,17,0,0,0,0,0
1565373757343.75,-27,-44,21,0,0,0,0,0
1565373757375,-28,-42,20,0,0,0,0,0
1565373757406.25,-36,-43,18,0,0,0,0,0
1565373757437.5,-30,-43,9,0,0,0,0,0
1565373757468.75,-28,-46,8,0,0,0,0,0
1565373757500,-22,-50,13,0,0,0,0,0
1565373757531.25,-20,-51,16,0,0,0,0,0
1565373757562.5,-24,-51,17,0,0,0,0,0
1565373757593.75,-37,-51,17,0,0,0,0,0
1565373757625,-45,-52,17,0,0,0,0,0
1565373757656.25,-57,-57,28,0,0,0,0,0
1565373757687.5,-79,-54,42,0,0,0,0,0
1565373757718.75,-113,-42,32,0,0,0,0,0
1565373757750,-128,-41,13,0,0,0,0,0
1565373757781.25,-128,-70,36,0,0,0,0,0
1565373757812.5,-128,-86,42,0,0,0,0,0
1565373757843.75,-128,-115,31,0,0,0,0,0
1565373757875,-66,-88,15,0,0,0,0,0
1565373757906.25,-34,-61,6,0,0,0,0,0
1565373757937.5,-7,-22,-16,0,0,0,0,0
1565373757968.75,-7,-18,-46,0,0,0,0,0
1565373758000,15,-24,-56,0,0,0,0,0
1565373758031.25,62,-41,-43,0,0,0,0,0
1565373758062.5,84,-56,-10,0,0,0,0,0
1565373758093.75,67,-63,0,0,0,0,0,0
1565373758125,123,-71,116,0,0,0,0,0
1565373758156.25,-128,-99,-61,0,0,0,0,0
1565373758187.5,-123,-9,-8,0,0,0,0,0
1565373758218.75,-67,75,97,0,0,0,0,0
1565373758250,-51,74,46,0,0,0,0,0
1565373758281.25,-73,58,33,0,0,0,0,0
1565373758312.5,-70,25,24,0,0,0,0,0
1565373758343.75,-74,8,19,0,0,0,0,0
1565373758375,-71,-13,13,0,0,0,0,0
1565373758406.25,-61,-16,15,0,0,0,0,0
1565373758437.5,-55,-11,16,0,0,0,0,0
1565373758468.75,-51,-5,20,0,0,0,0,0
1565373758500,-40,-6,30,0,0,0,0,0
1565373758531.25,-53,-6,29,0,0,0,0,0
1565373758562.5,-91,-1,22,0,0,0,0,0
1565373758593.75,-82,1,18,0,0,0,0,0
1565373758625,-88,3,19,0,0,0,0,0
1565373758656.25,-61,-7,14,0,0,0,0,0
1565373758687.5,-85,-10,14,0,0,0,0,0
1565373758718.75,-80,-9,18,0,0,0,0,0
1565373758750,-50,-3,28,0,0,0,0,0
1565373758781.25,-58,4,27,0,0,0,0,0
1565373758812.5,-52,4,29,0,0,0,0,0
1565373758843.75,-47,1,23,0,0,0,0,0
1565373758875,-57,2,17,0,0,0,0,0
1565373758906.25,-83,11,14,0,0,0,0,0
1565373758937.5,-105,28,25,0,0,0,0,0
1565373758968.75,-71,22,38,0,0,0,0,0
1565373759000,-51,11,69,0,0,0,0,0
1565373759031.25,-63,14,65,0,0,0,0,0
1565373759062.5,-60,9,43,0,0,0,0,0
1565373759093.75,-23,8,27,0,0,0,0,0
1565373759125,-13,3,23,0,0,0,0,0
1565373759156.25,-13,3,20,0,0,0,0,0
1565373759187.5,-14,-11,39,0,0,0,0,0
1565373759218.75,-36,-27,68,0,0,0,0,0
1565373759250,-43,-30,68,0,0,0,0,0
1565373759281.25,-29,-5,51,0,0,0,0,0
1565373759312.5,-28,-5,65,0,0,0,0,0
1565373759343.75,-22,0,66,0,0,0,0,0
1565373759375,-38,6,54,0,0,0,0,0
1565373759406.25,-19,12,50,0,0,0,0,0
1565373759437.5,-17,9,60,0,0,0,0,0
1565373759468.75,-20,-2,73,0,0,0,0,0
1565373759500,-29,-11,57,0,0,0,0,0
1565373759531.25,-28,-10,55,0,0,0,0,0
1565373759562.5,-37,-10,55,0,0,0,0,0
1565373759593.75,-54,-13,40,0,0,0,0,0
1565373759625,-54,-14,41,0,0,0,0,0
1565373759656.25,-44,-18,41,0,0,0,0,0
1565373759687.5,-44,-22,34,0,0,0,0,0
1565373759718.75,-57,-20,22,0,0,0,0,0
1565373759750,-26,-5,48,0,0,0,0,0
1565373759781.25,-17,0,48,0,0,0,0,0
1565373759812.5,-40,9,36,0,0,0,0,0
1565373759843.75,-16,-1,49,0,0,0,0,0
1565373759875,-5,-4,52,0,0,0,0,0
1565373759906.25,13,-7,42,0,0,0,0,0
1565373759937.5,-6,-18,30,0,0,0,0,0
1565373759968.75,2,-28,40,0,0,0,0,0
1565373760000,6,-58,37,0,0,0,0,0
1565373760031.25,-15,-92,13,0,0,0,0,0
1565373760062.5,-39,-105,4,0,0,0,0,0
1565373760093.75,-36,-106,18,0,0,0,0,0
1565373760125,-34,-128,42,0,0,0,0,0
1565373760156.25,-21,-128,39,0,0,0,0,0
1565373760187.5,-55,-128,5,0,0,0,0,0
1565373760218.75,-65,-128,6,0,0,0,0,0
1565373760250,-54,-107,9,0,0,0,0,0
1565373760281.25,-71,-76,-7,0,0,0,0,0
1565373760312.5,-64,-60,-6,0,0,0,0,0
1565373760343.75,-51,-36,0,0,0,0,0,0
1565373760375,-44,-32,8,0,0,0,0,0
1565373760406.25,-42,-34,10,0,0,0,0,0
1565373760437.5,-38,-46,15,0,0,0,0,0
1565373760468.75,-27,-48,21,0,0,0,0,0
1565373760500,-24,-49,22,0,0,0,0,0
1565373760531.25,-24,-53,20,0,0,0,0,0
1565373760562.5,-25,-59,17,0,0,0,0,0
1565373760593.75,-24,-63,17,0,0,0,0,0
1565373760625,-23,-63,18,0,0,0,0,0
1565373760656.25,-25,-54,19,0,0,0,0,0
1565373760687.5,-30,-50,20,0,0,0,0,0
1565373760718.75,-39,-43,19,0,0,0,0,0
1565373760750,-41,-61,22,0,0,0,0,0
1565373760781.25,-37,-74,25,0,0,0,0,0
1565373760812.5,-9,-92,30,0,0,0,0,0
1565373760843.75,14,-87,41,0,0,0,0,0
1565373760875,12,-75,42,0,0,0,0,0
1565373760906.25,-6,-61,29,0,0,0,0,0
1565373760937.5,-16,-53,21,0,0,0,0,0
1565373760968.75,-28,-35,12,0,0,0,0,0
1565373761000,-31,-22,11,0,0,0,0,0
1565373761031.25,-30,-19,11,0,0,0,0,0
1565373761062.5,-25,-24,15,0,0,0,0,0
1565373761093.75,-26,-39,17,0,0,0,0,0
1565373761125,-27,-47,18,0,0,0,0,0
1565373761156.25,-31,-59,21,0,0,0,0,0
1565373761187.5,-44,-73,26,0,0,0,0,0
1565373761218.75,-51,-85,26,0,0,0,0,0
1565373761250,-48,-67,24,0,0,0,0,0
1565373761281.25,-53,-64,19,0,0,0,0,0
1565373761312.5,-52,-62,18,0,0,0,0,0
1565373761343.75,-34,-59,15,0,0,0,0,0
1565373761375,-59,-53,-21,0,0,0,0,0
1565373761406.25,-128,-58,-41,0,0,0,0,0
1565373761437.5,-128,-77,-39,0,0,0,0,0
1565373761468.75,-106,-34,-46,0,0,0,0,0
1565373761500,-81,-39,-31,0,0,0,0,0
1565373761531.25,-45,-54,-10,0,0,0,0,0
1565373761562.5,-54,-71,-41,0,0,0,0,0
1565373761593.75,-31,-84,-30,0,0,0,0,0
1565373761625,24,-64,18,0,0,0,0,0
1565373761656.25,-4,-63,16,0,0,0,0,0
1565373761687.5,-30,29,-3,0,0,0,0,0
1565373761718.75,-63,41,-20,0,0,0,0,0
1565373761750,-83,26,-13,0,0,0,0,0
1565373761781.25,-68,11,2,0,0,0,0,0
1565373761812.5,-72,15,-12,0,0,0,0,0
1565373761843.75,-63,19,-14,0,0,0,0,0
1565373761875,-51,31,-18,0,0,0,0,0
1565373761906.25,-30,22,-12,0,0,0,0,0
1565373761937.5,-23,10,-7,0,0,0,0,0
1565373761968.75,-31,12,-38,0,0,0,0,0
1565373762000,-45,34,-70,0,0,0,0,0
1565373762031.25,-23,57,-74,0,0,0,0,0
1565373762062.5,-21,48,-68,0,0,0,0,0
1565373762093.75,-66,23,-56,0,0,0,0,0
1565373762125,-75,-20,-32,0,0,0,0,0
1565373762156.25,-118,-50,-32,0,0,0,0,0
1565373762187.5,-26,18,-69,0,0,0,0,0
1565373762218.75,-16,23,-75,0,0,0,0,0
1565373762250,-36,18,-67,0,0,0,0,0
1565373762281.25,-56,14,-38,0,0,0,0,0
1565373762312.5,-92,10,-16,0,0,0,0,0
1565373762343.75,-39,21,-36,0,0,0,0,0
1565373762375,-32,17,-50,0,0,0,0,0
1565373762406.25,-31,9,-45,0,0,0,0,0
1565373762437.5,-42,13,-43,0,0,0,0,0
1565373762468.75,-42,15,-43,0,0,0,0,0
1565373762500,-49,15,-42,0,0,0,0,0
1565373762531.25,-53,12,-39,0,0,0,0,0
1565373762562.5,-54,13,-41,0,0,0,0,0
1565373762593.75,-50,14,-38,0,0,0,0,0
1565373762625,-44,17,-37,0,0,0,0,0
1565373762656.25,-43,18,-37,0,0,0,0,0
1565373762687.5,-42,17,-39,0,0,0,0,0
1565373762718.75,-46,15,-44,0,0,0,0,0
1565373762750,-49,13,-46,0,0,0,0,0
1565373762781.25,-64,14,-41,0,0,0,0,0
1565373762812.5,-65,20,-39,0,0,0,0,0
1565373762843.75,-47,29,-40,0,0,0,0,0
1565373762875,-45,25,-39,0,0,0,0,0
1565373762906.25,-48,26,-41,0,0,0,0,0
1565373762937.5,-30,29,-25,0,0,0,0,0
1565373762968.75,-48,30,-43,0,0,0,0,0
1565373763000,-46,26,-40,0,0,0,0,0
1565373763031.25,-43,25,-39,0,0,0,0,0
1565373763062.5,-41,19,-37,0,0,0,0,0
1565373763093.75,-45,19,-39,0,0,0,0,0
1565373763125,-45,23,-42,0,0,0,0,0
1565373763156.25,-52,19,-45,0,0,0,0,0
1565373763187.5,-57,13,-42,0,0,0,0,0
1565373763218.75,-56,25,-40,0,0,0,0,0
1565373763250,-38,25,-38,0,0,0,0,0
1565373763281.25,-41,18,-33,0,0,0,0,0
1565373763312.5,-48,12,-33,0,0,0,0,0
1565373763343.75,-40,11,-49,0,0,0,0,0
1565373763375,-41,3,-49,0,0,0,0,0
1565373763406.25,-51,1,-47,0,0,0,0,0
1565373763437.5,-54,4,-46,0,0,0,0,0
1565373763468.75,-52,6,-49,0,0,0,0,0
1565373763500,-48,7,-53,0,0,0,0,0
1565373763531.25,-52,8,-40,0,0,0,0,0
1565373763562.5,-50,1,-34,0,0,0,0,0
1565373763593.75,-46,3,-35,0,0,0,0,0
1565373763625,-41,6,-32,0,0,0,0,0
1565373763656.25,-37,9,-36,0,0,0,0,0
1565373763687.5,-39,5,-35,0,0,0,0,0
1565373763718.75,-47,5,-44,0,0,0,0,0
1565373763750,-54,-2,-41,0,0,0,0,0
1565373763781.25,-61,9,-55,0,0,0,0,0
1565373763812.5,-58,12,-55,0,0,0,0,0
1565373763843.75,-51,13,-43,0,0,0,0,0
1565373763875,-48,18,-35,0,0,0,0,0
1565373763906.25,-44,19,-35,0,0,0,0,0
1565373763937.5,-43,17,-40,0,0,0,0,0
1565373763968.75,-46,11,-43,0,0,0,0,0
1565373764000,-52,7,-41,0,0,0,0,0
1565373764031.25,-54,0,-37,0,0,0,0,0
1565373764062.5,-38,8,-36,0,0,0,0,0
1565373764093.75,-37,14,-37,0,0,0,0,0
1565373764125,-42,12,-41,0,0,0,0,0
1565373764156.25,-47,12,-41,0,0,0,0,0
1565373764187.5,-47,15,-41,0,0,0,0,0
1565373764218.75,-56,17,-45,1,0,0,0,0
1565373764250,-54,14,-44,1,0,0,0,0
1565373764281.25,-48,14,-42,1,0,0,0,0
1565373764312.5,-51,12,-40,1,0,0,0,0
1565373764343.75,-49,11,-32,1,0,0,0,0
1565373764375,-53,6,-29,1,0,0,0,0
1565373764406.25,-53,5,-34,1,0,0,0,0
1565373764437.5,-63,6,-36,0,0,0,0,0
1565373764468.75,-42,14,-29,0,0,0,0,0
1565373764500,-52,15,-33,0,0,0,0,0
1565373764531.25,-54,15,-38,0,0,0,0,0
1565373764562.5,-63,20,-42,0,0,0,0,0
1565373764593.75,-69,17,-35,0,0,0,0,0
1565373764625,-63,14,-27,0,0,0,0,0
1565373764656.25,-53,8,-22,0,0,0,0,0
1565373764687.5,-52,5,-29,0,0,0,0,0
1565373764718.75,-51,7,-33,0,0,0,0,0
1565373764750,-52,9,-29,0,0,0,0,0
1565373764781.25,-59,11,-28,0,0,0,0,0
1565373764812.5,-61,12,-29,0,0,0,0,0
1565373764843.75,-60,13,-26,0,0,0,0,0
1565373764875,-61,12,-26,0,0,0,0,0
1565373764906.25,-58,13,-30,0,0,0,0,0
1565373764937.5,-57,9,-29,0,0,0,0,0
1565373764968.75,-56,6,-27,0,0,0,0,0
1565373765000,-56,5,-28,0,0,0,0,0
1565373765031.25,-58,9,-25,0,0,0,0,0
1565373765062.5,-57,9,-26,0,0,0,0,0
1565373765093.75,-60,10,-26,0,0,0,0,0
1565373765125,-65,10,-26,0,0,0,0,0
1565373765156.25,-66,10,-25,0,0,0,0,0
1565373765187.5,-65,10,-24,0,0,0,0,0
1565373765218.75,-57,10,-20,0,0,0,0,0
1565373765250,-56,8,-20,0,0,0,0,0
1565373765281.25,-59,6,-21,0,0,0,0,0
1565373765312.5,-55,5,-19,0,0,0,0,0
1565373765343.75,-60,5,-19,0,0,0,0,0
1565373765375,-64,6,-19,0,0,0,0,0
1565373765406.25,-62,6,-19,0,0,0,0,0
1565373765437.5,-63,6,-18,0,0,0,0,0
1565373765468.75,-61,5,-17,0,0,0,0,0
1565373765500,-63,3,-19,0,0,0,0,0
1565373765531.25,-66,1,-22,0,0,0,0,0
1565373765562.5,-63,1,-18,0,0,0,0,0
1565373765593.75,-60,1,-19,0,0,0,0,0
1565373765625,-60,-1,-18,0,0,0,0,0
1565373765656.25,-62,-2,-18,0,0,0,0,0
1565373765687.5,-63,-1,-18,0,0,0,0,0
1565373765718.75,-62,2,-19,0,0,0,0,0
1565373765750,-59,3,-17,0,0,0,0,0
1565373765781.25,-58,2,-19,0,0,0,0,0
1565373765812.5,-57,1,-19,0,0,0,0,0
1565373765843.75,-55,1,-19,0,0,0,0,0
1565373765875,-61,1,-20,0,0,0,0,0
1565373765906.25,-71,2,-20,0,0,0,0,0
1565373765937.5,-69,2,-18,0,0,0,0,0
1565373765968.75,-66,1,-16,0,0,0,0,0
1565373766000,-65,-1,-17,0,0,0,0,0
1565373766031.25,-59,-4,-15,0,0,0,0,0
1565373766062.5,-58,-6,-16,0,0,0,0,0
1565373766093.75,-57,-9,-18,0,0,0,0,0
1565373766125,-63,-7,-21,0,0,0,0,0
1565373766156.25,-60,-8,-20,0,0,0,0,0
1565373766187.5,-52,-5,-17,0,0,0,0,0
1565373766218.75,-60,-5,-20,0,0,0,0,0
1565373766250,-66,-8,-20,0,0,0,0,0
1565373766281.25,-62,-6,-17,0,0,0,0,0
1565373766312.5,-61,-4,-17,0,0,0,0,0
1565373766343.75,-62,-4,-19,0,0,0,0,0
1565373766375,-60,-6,-23,0,0,0,0,0
1565373766406.25,-58,-6,-23,0,0,0,0,0
1565373766437.5,-56,-4,-24,0,0,0,0,0
1565373766468.75,-64,0,-23,0,0,0,0,0
1565373766500,-67,0,-25,0,0,0,0,0
1565373766531.25,-60,1,-21,0,0,0,0,0
1565373766562.5,-57,4,-25,0,0,0,0,0
1565373766593.75,-57,5,-26,0,0,0,0,0
1565373766625,-56,3,-25,0,0,0,0,0
1565373766656.25,-63,3,-30,0,0,0,0,0
1565373766687.5,-64,4,-31,0,0,0,0,0
1565373766718.75,-59,3,-26,0,0,0,0,0
1565373766750,-55,2,-23,0,0,0,0,0
1565373766781.25,-57,-1,-23,0,0,0,0,0
1565373766812.5,-57,1,-27,0,0,0,0,0
1565373766843.75,-58,2,-30,0,0,0,0,0
1565373766875,-61,1,-33,0,0,0,0,0
1565373766906.25,-57,1,-31,0,0,0,0,0
1565373766937.5,-57,3,-30,0,0,0,0,0
1565373766968.75,-56,6,-28,0,0,0,0,0
1565373767000,-55,10,-29,0,0,0,0,0
1565373767031.25,-56,10,-30,0,0,0,0,0
1565373767062.5,-57,9,-31,0,0,0,0,0
1565373767093.75,-57,9,-33,0,0,0,0,0
1565373767125,-57,10,-34,0,0,0,0,0
1565373767156.25,-60,7,-27,0,0,0,0,0
1565373767187.5,-60,5,-27,0,0,0,0,0
1565373767218.75,-61,7,-29,0,0,0,0,0
1565373767250,-56,11,-27,0,0,0,0,0
1565373767281.25,-54,13,-26,0,0,0,0,0
1565373767312.5,-54,13,-26,0,0,0,0,0
1565373767343.75,-60,9,-34,0,0,0,0,0
1565373767375,-62,0,-37,0,0,0,0,0
1565373767406.25,-60,-3,-39,0,0,0,0,0
1565373767437.5,-54,-4,-35,0,0,0,0,0
1565373767468.75,-50,-1,-33,0,0,0,0,0
1565373767500,-47,3,-40,0,0,0,0,0
1565373767531.25,-46,-7,-42,0,0,0,0,0
1565373767562.5,-47,-13,-43,0,0,0,0,0
1565373767593.75,-52,-15,-42,0,0,0,0,0
1565373767625,-51,-8,-35,0,0,0,0,0
1565373767656.25,-50,-6,-33,0,0,0,0,0
1565373767687.5,-48,-3,-36,0,0,0,0,0
1565373767718.75,-46,-7,-40,0,0,0,0,0
1565373767750,-46,-10,-42,0,0,0,0,0
1565373767781.25,-49,-12,-43,0,0,0,0,0
1565373767812.5,-50,-8,-44,0,0,0,0,0
1565373767843.75,-51,-5,-43,0,0,0,0,0
1565373767875,-52,-2,-36,0,0,0,0,0
1565373767906.25,-54,1,-38,0,0,0,0,0
1565373767937.5,-54,1,-37,0,0,0,0,0
1565373767968.75,-50,3,-32,0,0,0,0,0
1565373768000,-51,5,-36,0,0,0,0,0
1565373768031.25,-50,3,-37,0,0,0,0,0
1565373768062.5,-49,-1,-38,0,0,0,0,0
1565373768093.75,-51,-1,-42,0,0,0,0,0
1565373768125,-57,-3,-50,0,0,0,0,0
1565373768156.25,-54,-5,-55,0,0,0,0,0
1565373768187.5,-52,-4,-54,0,0,0,0,0
1565373768218.75,-46,2,-44,0,0,0,0,0
1565373768250,-41,7,-43,0,0,0,0,0
1565373768281.25,-35,6,-46,0,0,0,0,0
1565373768312.5,-29,3,-53,0,0,0,0,0
1565373768343.75,-34,-2,-46,0,0,0,0,0
1565373768375,-39,-5,-40,0,0,0,0,0
1565373768406.25,-49,-1,-37,0,0,0,0,0
1565373768437.5,-42,15,-51,0,0,0,0,0
1565373768468.75,-41,16,-51,0,0,0,0,0
1565373768500,-40,11,-53,0,0,0,0,0
1565373768531.25,-40,4,-51,0,0,0,0,0
1565373768562.5,-42,0,-53,0,0,0,0,0
1565373768593.75,-46,-5,-52,0,0,0,0,0
1565373768625,-50,-2,-48,0,0,0,0,0
1565373768656.25,-48,2,-45,0,0,0,0,0
1565373768687.5,-39,13,-46,0,0,0,0,0
1565373768718.75,-41,10,-46,0,0,0,0,0
1565373768750,-43,6,-44,0,0,0,0,0
1565373768781.25,-46,0,-45,0,0,0,0,0
1565373768812.5,-47,-3,-46,0,0,0,0,0
1565373768843.75,-44,-5,-67,0,0,0,0,0
1565373768875,-27,-17,-51,0,0,0,0,0
1565373768906.25,-25,-22,-42,0,0,0,0,0
1565373768937.5,-33,-19,-40,0,0,0,0,0
1565373768968.75,-45,-14,-48,0,0,0,0,0
1565373769000,-50,-16,-50,0,0,0,0,0
1565373769031.25,-49,-17,-49,0,0,0,0,0
1565373769062.5,-41,-12,-41,0,0,0,0,0
1565373769093.75,-38,-11,-37,0,0,0,0,0
1565373769125,-29,-14,-33,0,0,0,0,0
1565373769156.25,-31,-21,-41,0,0,0,0,0
1565373769187.5,-30,-24,-44,0,0,0,0,0
1565373769218.75,-37,-30,-50,0,0,0,0,0
1565373769250,-45,-28,-55,0,0,0,0,0
1565373769281.25,-48,-26,-54,0,0,0,0,0
1565373769312.5,-48,-20,-48,0,0,0,0,0
1565373769343.75,-47,-15,-45,0,0,0,0,0
1565373769375,-45,-13,-45,0,0,0,0,0
1565373769406.25,-40,-15,-47,0,0,0,0,0
1565373769437.5,-35,-16,-51,0,0,0,0,0
1565373769468.75,-28,-24,-67,0,0,0,0,0
1565373769500,-27,-27,-69,0,0,0,0,0
1565373769531.25,-29,-23,-64,0,0,0,0,0
1565373769562.5,-51,-19,-47,0,0,0,0,0
1565373769593.75,-66,-20,-49,0,0,0,0,0
1565373769625,-58,-19,-44,0,0,0,0,0
1565373769656.25,-41,-12,-35,0,0,0,0,0
1565373769687.5,-32,-2,-25,0,0,0,0,0
1565373769718.75,-44,-6,-22,0,0,0,0,0
1565373769750,-56,-4,-12,0,0,0,0,0
1565373769781.25,-71,-6,-5,0,0,0,0,0
1565373769812.5,-70,-10,-3,0,0,0,0,0
1565373769843.75,-67,-15,2,0,0,0,0,0
1565373769875,-72,-20,6,0,0,0,0,0
1565373769906.25,-65,-22,8,0,0,0,0,0
1565373769937.5,-56,-18,5,0,0,0,0,0
1565373769968.75,-59,-13,19,0,0,0,0,0
1565373770000,-55,-11,22,0,0,0,0,0
1565373770031.25,-64,-13,20,0,0,0,0,0
1565373770062.5,-76,-16,19,0,0,0,0,0
1565373770093.75,-62,-8,20,0,0,0,0,0
1565373770125,-64,-12,19,0,0,0,0,0
1565373770156.25,-59,-13,23,0,0,0,0,0
1565373770187.5,-56,-10,31,0,0,0,0,0
1565373770218.75,-53,-10,36,0,0,0,0,0
1565373770250,-60,-8,31,0,0,0,0,0
1565373770281.25,-67,-4,26,0,0,0,0,0
1565373770312.5,-64,-12,25,0,0,0,0,0
1565373770343.75,-59,-19,25,0,0,0,0,0
1565373770375,-57,-24,20,0,0,0,0,0
1565373770406.25,-44,-16,23,0,0,0,0,0
1565373770437.5,-46,-20,27,0,0,0,0,0
1565373770468.75,-47,-27,32,0,0,0,0,0
1565373770500,-50,-33,34,0,0,0,0,0
1565373770531.25,-57,-29,31,0,0,0,0,0
1565373770562.5,-55,-17,33,0,0,0,0,0
1565373770593.75,-50,-10,38,0,0,0,0,0
1565373770625,-51,-10,37,0,0,0,0,0
1565373770656.25,-49,-16,37,0,0,0,0,0
1565373770687.5,-47,-19,37,0,0,0,0,0
1565373770718.75,-46,-20,37,0,0,0,0,0
1565373770750,-50,-17,40,0,0,0,0,0
1565373770781.25,-51,-14,43,0,0,0,0,0
1565373770812.5,-57,-12,47,0,0,0,0,0
1565373770843.75,-60,-12,52,0,0,0,0,0
1565373770875,-64,-17,58,0,0,0,0,0
1565373770906.25,-71,-23,48,0,0,0,0,0
1565373770937.5,-57,-13,28,0,0,0,0,0
1565373770968.75,-43,-12,22,0,0,0,0,0
1565373771000,-39,11,25,0,0,0,0,0
1565373771031.25,-40,14,35,0,0,0,0,0
1565373771062.5,-42,11,42,0,0,0,0,0
1565373771093.75,-65,-6,47,0,0,0,0,0
1565373771125,-50,-11,47,0,0,0,0,0
1565373771156.25,-44,-8,41,0,0,0,0,0
1565373771187.5,-40,-2,35,0,0,0,0,0
1565373771218.75,-46,4,35,0,0,0,0,0
1565373771250,-51,5,37,0,0,0,0,0
1565373771281.25,-56,3,44,0,0,0,0,0
1565373771312.5,-57,0,47,0,0,0,0,0
1565373771343.75,-54,-4,45,0,0,0,0,0
1565373771375,-46,-1,41,0,0,0,0,0
1565373771406.25,-46,2,41,0,0,0,0,0
1565373771437.5,-50,8,43,0,0,0,0,0
1565373771468.75,-52,9,50,0,0,0,0,0
1565373771500,-53,7,52,0,0,0,0,0
1565373771531.25,-52,1,52,0,0,0,0,0
1565373771562.5,-58,0,41,0,0,0,0,0
1565373771593.75,-63,-7,38,0,0,0,0,0
1565373771625,-46,-15,43,0,0,0,0,0
1565373771656.25,-20,6,44,0,0,0,0,0
1565373771687.5,-28,-23,47,0,0,0,0,0
1565373771718.75,-38,-25,47,0,0,0,0,0
1565373771750,-51,-29,28,0,0,0,0,0
1565373771781.25,-45,-25,18,0,0,0,0,0
1565373771812.5,-53,-16,-2,0,0,0,0,0
1565373771843.75,-65,-15,9,0,0,0,0,0
1565373771875,-54,-18,15,0,0,0,0,0
1565373771906.25,-60,-29,5,0,0,0,0,0
1565373771937.5,-59,-31,3,0,0,0,0,0
1565373771968.75,-56,-23,3,0,0,0,0,0
1565373772000,-52,-27,4,0,0,0,0,0
1565373772031.25,-60,-16,1,0,0,0,0,0
1565373772062.5,-64,-16,-1,0,0,0,0,0
1565373772093.75,-61,-17,-2,0,0,0,0,0
1565373772125,-63,-18,-5,0,0,0,0,0
1565373772156.25,-82,-29,-14,0,0,0,0,0
1565373772187.5,-90,-35,-42,0,0,0,0,0
1565373772218.75,-77,-31,-37,0,0,0,0,0
1565373772250,-44,-20,-22,0,0,0,0,0
1565373772281.25,-47,-26,-28,0,0,0,0,0
1565373772312.5,-55,-33,-33,0,0,0,0,0
1565373772343.75,-54,-38,-25,0,0,0,0,0
1565373772375,-41,-40,-4,0,0,0,0,0
1565373772406.25,-46,-33,1,0,0,0,0,0
1565373772437.5,-47,-26,2,0,0,0,0,0
1565373772468.75,-51,-22,6,0,0,0,0,0
1565373772500,-49,-20,11,0,0,0,0,0
1565373772531.25,-78,-16,25,0,0,0,0,0
1565373772562.5,-101,-21,-8,0,0,0,0,0
1565373772593.75,-100,-34,-3,0,0,0,0,0
1565373772625,-91,-27,-1,0,0,0,0,0
1565373772656.25,-96,-30,-7,0,0,0,0,0
1565373772687.5,-115,-31,-28,0,0,0,0,0
1565373772718.75,-104,-26,-18,0,0,0,0,0
1565373772750,-91,-19,-6,0,0,0,0,0
1565373772781.25,-58,-15,10,0,0,0,0,0
1565373772812.5,-33,-5,-4,0,0,0,0,0
1565373772843.75,-22,-3,-6,0,0,0,0,0
1565373772875,-9,-3,-5,0,0,0,0,0
1565373772906.25,5,5,-6,0,0,0,0,0
1565373772937.5,7,10,-6,0,0,0,0,0
1565373772968.75,0,16,-10,0,0,0,0,0
1565373773000,-11,16,-2,0,0,0,0,0
1565373773031.25,-28,19,5,0,0,0,0,0
1565373773062.5,-87,-128,127,0,0,0,0,0
1565373773093.75,-114,83,33,0,0,0,0,0
1565373773125,-84,-1,49,0,0,0,0,0
1565373773156.25,-46,15,62,0,0,0,0,0
1565373773187.5,-31,28,47,0,0,0,0,0
1565373773218.75,-46,28,30,0,0,0,0,0
1565373773250,-67,26,0,0,0,0,0,0
1565373773281.25,-50,26,-4,0,0,0,0,0
1565373773312.5,-42,31,-10,0,0,0,0,0
1565373773343.75,-44,33,-12,0,0,0,0,0
1565373773375,-49,38,-21,0,0,0,0,0
1565373773406.25,-55,41,-25,0,0,0,0,0
1565373773437.5,-68,24,-14,0,0,0,0,0
1565373773468.75,-75,15,-5,0,0,0,0,0
1565373773500,-91,5,12,0,0,0,0,0
1565373773531.25,-86,7,25,0,0,0,0,0
1565373773562.5,-72,6,33,0,0,0,0,0
1565373773593.75,-35,8,38,0,0,0,0,0
1565373773625,-32,17,37,0,0,0,0,0
1565373773656.25,-43,15,34,0,0,0,0,0
1565373773687.5,-48,8,28,0,0,0,0,0
1565373773718.75,-70,-5,22,0,0,0,0,0
1565373773750,-78,-7,20,0,0,0,0,0
1565373773781.25,-73,-12,28,0,0,0,0,0
1565373773812.5,-75,-22,31,0,0,0,0,0
1565373773843.75,-76,-24,27,0,0,0,0,0
1565373773875,-61,-25,24,0,0,0,0,0
1565373773906.25,-39,-14,28,0,0,0,0,0
1565373773937.5,-33,-10,28,0,0,0,0,0
1565373773968.75,-34,-4,27,0,0,0,0,0
1565373774000,-54,-12,26,0,0,0,0,0
1565373774031.25,-57,-15,27,0,0,0,0,0
1565373774062.5,-56,-15,27,0,0,0,0,0
1565373774093.75,-53,-14,27,0,0,0,0,0
1565373774125,-55,-14,23,0,0,0,0,0
1565373774156.25,-59,-17,25,0,0,0,0,0
1565373774187.5,-75,-19,25,0,0,0,0,0
1565373774218.75,-125,-58,20,0,0,0,0,0
1565373774250,-116,-102,25,0,0,0,0,0
1565373774281.25,-88,-72,29,0,0,0,0,0
1565373774312.5,-44,-3,23,0,0,0,0,0
1565373774343.75,-21,20,-10,0,0,0,0,0
1565373774375,-51,-11,-18,0,0,0,0,0
1565373774406.25,-88,-104,-42,0,0,0,0,0
1565373774437.5,12,-107,4,0,0,0,0,0
1565373774468.75,10,-57,18,0,0,0,0,0
1565373774500,14,13,5,0,0,0,0,0
1565373774531.25,63,2,125,0,0,0,0,0
1565373774562.5,15,-34,127,0,0,0,0,0
1565373774593.75,-80,-29,-74,0,0,0,0,0
1565373774625,-128,-128,-128,0,0,0,0,0
1565373774656.25,-117,-75,-128,0,0,0,0,0
1565373774687.5,-12,-33,-48,0,0,0,0,0
1565373774718.75,2,-47,-30,0,0,0,0,0
1565373774750,-18,-44,-70,0,0,0,0,0
1565373774781.25,-33,-52,-25,0,0,0,0,0
1565373774812.5,-41,-28,-11,0,0,0,0,0
1565373774843.75,-61,-29,-1,0,0,0,0,0
1565373774875,-12,5,5,0,0,0,0,0
1565373774906.25,-9,-1,-2,0,0,0,0,0
1565373774937.5,-58,-2,-31,0,0,0,0,0
1565373774968.75,-103,-98,-11,0,0,0,0,0
1565373775000,-128,-53,-37,0,0,0,0,0
1565373775031.25,-124,-6,-77,0,0,0,0,0
1565373775062.5,-41,66,-128,0,0,0,0,0
1565373775093.75,-28,22,-128,0,0,0,0,0
1565373775125,15,-80,-48,0,0,0,0,0
1565373775156.25,-62,-19,-8,0,0,0,0,0
1565373775187.5,-128,-31,-15,0,0,0,0,0
1565373775218.75,-62,-79,82,0,0,0,0,0
1565373775250,-36,-114,8,0,0,0,0,0
1565373775281.25,-14,-11,17,0,0,0,0,0
1565373775312.5,16,48,-24,0,0,0,0,0
1565373775343.75,17,27,46,0,0,0,0,0
1565373775375,29,87,92,0,0,0,0,0
1565373775406.25,-71,13,62,0,0,0,0,0
1565373775437.5,-52,-1,73,0,0,0,0,0
1565373775468.75,-33,1,60,0,0,0,0,0
1565373775500,-50,10,40,0,0,0,0,0
1565373775531.25,-68,12,38,0,0,0,0,0
1565373775562.5,-53,18,40,0,0,0,0,0
1565373775593.75,-33,4,52,0,0,0,0,0
1565373775625,-41,-4,50,0,0,0,0,0
1565373775656.25,-37,-3,44,0,0,0,0,0
1565373775687.5,-39,4,50,0,0,0,0,0
1565373775718.75,-39,3,52,0,0,0,0,0
1565373775750,-37,6,44,0,0,0,0,0
1565373775781.25,-32,4,42,0,0,0,0,0
1565373775812.5,-37,1,49,0,0,0,0,0
1565373775843.75,-42,-4,58,0,0,0,0,0
1565373775875,-44,-6,56,0,0,0,0,0
1565373775906.25,-43,-6,57,0,0,0,0,0
1565373775937.5,-37,-2,54,0,0,0,0,0
1565373775968.75,-38,-2,53,0,0,0,0,0
1565373776000,-39,-3,53,0,0,0,0,0
1565373776031.25,-42,-6,55,0,0,0,0,0
1565373776062.5,-43,-8,55,0,0,0,0,0
1565373776093.75,-40,-6,55,0,0,0,0,0
1565373776125,-37,-3,54,0,0,0,0,0
1565373776156.25,-35,-2,53,0,0,0,0,0
1565373776187.5,-38,-3,54,0,0,0,0,0
1565373776218.75,-40,-6,53,0,0,0,0,0
1565373776250,-41,-7,52,0,0,0,0,0
1565373776281.25,-39,-6,52,0,0,0,0,0
1565373776312.5,-38,-5,54,0,0,0,0,0
1565373776343.75,-38,-4,54,0,0,0,0,0
1565373776375,-37,-4,54,0,0,0,0,0
1565373776406.25,-38,-3,54,0,0,0,0,0
1565373776437.5,-38,-3,54,0,0,0,0,0
1565373776468.75,-36,-3,52,0,0,0,0,0
1565373776500,-33,-3,50,0,0,0,0,0
1565373776531.25,-33,-3,50,0,0,0,0,0
1565373776562.5,-37,-3,52,0,0,0,0,0
1565373776593.75,-39,-3,53,0,0,0,0,0
1565373776625,-39,-6,54,0,0,0,0,0
1565373776656.25,-38,-6,54,0,0,0,0,0
1565373776687.5,-36,-6,52,0,0,0,0,0
1565373776718.75,-31,-6,49,0,0,0,0,0
1565373776750,-34,-6,49,0,0,0,0,0
1565373776781.25,-35,-6,48,0,0,0,0,0
1565373776812.5,-40,-9,53,0,0,0,0,0
1565373776843.75,-43,-9,55,0,0,0,0,0
1565373776875,-43,-8,55,0,0,0,0,0
1565373776906.25,-39,-3,55,0,0,0,0,0
1565373776937.5,-39,-2,56,0,0,0,0,0
1565373776968.75,-41,-3,56,0,0,0,0,0
1565373777000,-42,-7,57,0,0,0,0,0
1565373777031.25,-39,-8,58,0,0,0,0,0
1565373777062.5,-37,-7,59,0,0,0,0,0
1565373777093.75,-36,-6,57,0,0,0,0,0
1565373777125,-33,-3,55,0,0,0,0,0
1565373777156.25,-33,-1,54,0,0,0,0,0
1565373777187.5,-35,1,53,0,0,0,0,0
1565373777218.75,-35,0,54,0,0,0,0,0
1565373777250,-34,-1,55,0,0,0,0,0
1565373777281.25,-32,-3,58,0,0,0,0,0
1565373777312.5,-32,-3,58,0,0,0,0,0
1565373777343.75,-32,1,59,0,0,0,0,0
1565373777375,-32,3,60,0,0,0,0,0
1565373777406.25,-30,4,60,0,0,0,0,0
1565373777437.5,-26,5,59,0,0,0,0,0
1565373777468.75,-23,6,56,0,0,0,0,0
1565373777500,-25,6,55,0,0,0,0,0
1565373777531.25,-29,8,64,0,0,0,0,0
1565373777562.5,-48,-21,57,0,0,0,0,0
1565373777593.75,-36,-25,51,0,0,0,0,0
1565373777625,-19,-20,53,0,0,0,0,0
1565373777656.25,-19,-11,60,0,0,0,0,0
1565373777687.5,-35,-8,60,0,0,0,0,0
1565373777718.75,-43,-14,57,0,0,0,0,0
1565373777750,-48,-16,53,0,0,0,0,0
1565373777781.25,-40,-10,52,0,0,0,0,0
1565373777812.5,-24,0,53,0,0,0,0,0
1565373777843.75,-28,-9,56,0,0,0,0,0
1565373777875,-33,-14,55,0,0,0,0,0
1565373777906.25,-44,-21,54,0,0,0,0,0
1565373777937.5,-45,-22,54,0,0,0,0,0
1565373777968.75,-41,-20,54,0,0,0,0,0
1565373778000,-34,-15,56,0,0,0,0,0
1565373778031.25,-32,-13,55,0,0,0,0,0
1565373778062.5,-28,-10,54,0,0,0,0,0
1565373778093.75,-28,-12,52,0,0,0,0,0
1565373778125,-28,-13,53,0,0,0,0,0
1565373778156.25,-24,-14,54,0,0,0,0,0
1565373778187.5,-23,-14,56,0,0,0,0,0
1565373778218.75,-25,-12,58,0,0,0,0,0
1565373778250,-37,-14,72,0,0,0,0,0
1565373778281.25,-60,-22,49,0,0,0,0,0
1565373778312.5,-50,-20,38,0,0,0,0,0
1565373778343.75,-28,4,33,0,0,0,0,0
1565373778375,-29,17,47,0,0,0,0,0
1565373778406.25,-42,21,55,0,0,0,0,0
1565373778437.5,-77,1,58,0,0,0,0,0
1565373778468.75,-72,-8,52,0,0,0,0,0
1565373778500,-57,-3,52,0,0,0,0,0
1565373778531.25,-34,10,54,0,0,0,0,0
1565373778562.5,-38,10,51,0,0,0,0,0
1565373778593.75,-38,10,52,0,0,0,0,0
1565373778625,-37,5,46,0,0,0,0,0
1565373778656.25,-35,6,47,0,0,0,0,0
1565373778687.5,-35,-3,48,0,0,0,0,0
1565373778718.75,-33,-8,52,0,0,0,0,0
1565373778750,-38,-11,55,0,0,0,0,0
1565373778781.25,-36,-7,55,0,0,0,0,0
1565373778812.5,-47,4,59,0,0,0,0,0
1565373778843.75,-79,-11,59,0,0,0,0,0
1565373778875,-66,-36,63,0,0,0,0,0
1565373778906.25,-48,-24,55,0,0,0,0,0
1565373778937.5,-30,-13,56,0,0,0,0,0
1565373778968.75,-14,-2,44,0,0,0,0,0
1565373779000,-38,1,37,0,0,0,0,0
1565373779031.25,-40,0,32,0,0,0,0,0
1565373779062.5,-33,-1,30,0,0,0,0,0
1565373779093.75,-24,-9,46,0,0,0,0,0
1565373779125,-32,-12,50,0,0,0,0,0
1565373779156.25,-47,-18,59,0,0,0,0,0
1565373779187.5,-50,-16,53,0,0,0,0,0
1565373779218.75,-50,-18,51,0,0,0,0,0
1565373779250,-48,-8,52,0,0,0,0,0
1565373779281.25,-41,-9,51,0,0,0,0,0
1565373779312.5,-39,-8,54,0,0,0,0,0
1565373779343.75,-44,-14,58,0,0,0,0,0
1565373779375,-41,-16,56,0,0,0,0,0
1565373779406.25,-27,-23,53,0,0,0,0,0
1565373779437.5,-23,-23,61,0,0,0,0,0
1565373779468.75,-67,-9,38,0,0,0,0,0
1565373779500,-64,-29,26,0,0,0,0,0
1565373779531.25,-48,-4,23,0,0,0,0,0
1565373779562.5,-37,4,26,0,0,0,0,0
1565373779593.75,-33,13,50,0,0,0,0,0
1565373779625,-77,-8,51,0,0,0,0,0
1565373779656.25,-88,-22,51,0,0,0,0,0
1565373779687.5,-71,-11,47,0,0,0,0,0
1565373779718.75,-45,-5,40,0,0,0,0,0
1565373779750,-38,-2,38,0,0,0,0,0
1565373779781.25,-36,-1,33,0,0,0,0,0
1565373779812.5,-40,-4,32,0,0,0,0,0
1565373779843.75,-38,-4,35,0,0,0,0,0
1565373779875,-33,-6,43,0,0,0,0,0
1565373779906.25,-37,-6,47,0,0,0,0,0
1565373779937.5,-49,-10,55,0,0,0,0,0
1565373779968.75,-54,-10,59,0,0,0,0,0
1565373780000,-50,-7,55,0,0,0,0,0
1565373780031.25,-48,-6,54,0,0,0,0,0
1565373780062.5,-62,-23,53,0,0,0,0,0
1565373780093.75,-67,-32,39,0,0,0,0,0
1565373780125,-44,-31,34,0,0,0,0,0
1565373780156.25,-31,-28,39,0,0,0,0,0
1565373780187.5,-26,-31,46,0,0,0,0,0
1565373780218.75,-39,-36,37,0,0,0,0,0
1565373780250,-50,-33,24,0,0,0,0,0
1565373780281.25,-42,-26,25,0,0,0,0,0
1565373780312.5,-39,-17,28,0,0,0,0,0
1565373780343.75,-48,-19,24,0,0,0,0,0
1565373780375,-51,-17,25,0,0,0,0,0
1565373780406.25,-46,-14,21,0,0,0,0,0
1565373780437.5,-46,-21,30,0,0,0,0,0
1565373780468.75,-53,-24,31,0,0,0,0,0
1565373780500,-58,-30,41,0,0,0,0,0
1565373780531.25,-53,-30,42,0,0,0,0,0
1565373780562.5,-87,-35,19,0,0,0,0,0
1565373780593.75,-89,-26,7,0,0,0,0,0
1565373780625,-85,-28,9,0,0,0,0,0
1565373780656.25,-70,-30,18,0,0,0,0,0
1565373780687.5,-71,-45,22,0,0,0,0,0
1565373780718.75,-73,-49,18,0,0,0,0,0
1565373780750,-47,-37,14,0,0,0,0,0
1565373780781.25,-27,-22,14,0,0,0,0,0
1565373780812.5,-23,-19,15,0,0,0,0,0
1565373780843.75,-23,-19,14,0,0,0,0,0
1565373780875,-31,-26,14,0,0,0,0,0
1565373780906.25,-41,-38,14,0,0,0,0,0
1565373780937.5,-57,-68,14,0,0,0,0,0
1565373780968.75,-42,-62,33,0,0,0,0,0
1565373781000,-41,-62,40,0,0,0,0,0
1565373781031.25,-45,-45,36,0,0,0,0,0
1565373781062.5,-69,-50,28,0,0,0,0,0
1565373781093.75,-71,-51,25,0,0,0,0,0
1565373781125,-58,-50,22,0,0,0,0,0
1565373781156.25,-31,-36,28,0,0,0,0,0
1565373781187.5,-18,-28,30,0,0,0,0,0
1565373781218.75,-15,-22,28,0,0,0,0,0
1565373781250,-23,-21,25,0,0,0,0,0
1565373781281.25,-42,-17,18,0,0,0,0,0
1565373781312.5,-51,-18,17,0,0,0,0,0
1565373781343.75,-54,-22,20,0,0,0,0,0
1565373781375,-57,-29,27,0,0,0,0,0
1565373781406.25,-80,-58,33,0,0,0,0,0
1565373781437.5,-95,-52,28,0,0,0,0,0
1565373781468.75,-128,-54,11,0,0,0,0,0
1565373781500,-123,-43,8,0,0,0,0,0
1565373781531.25,-107,-26,4,0,0,0,0,0
1565373781562.5,-71,-25,2,0,0,0,0,0
1565373781593.75,-50,-30,1,0,0,0,0,0
1565373781625,-54,-30,-1,0,0,0,0,0
1565373781656.25,-74,-36,-40,0,0,0,0,0
1565373781687.5,-44,-54,-52,0,0,0,0,0
1565373781718.75,-11,-65,-38,0,0,0,0,0
1565373781750,13,-50,16,0,0,0,0,0
1565373781781.25,47,-53,101,0,0,0,0,0
1565373781812.5,-23,5,54,0,0,0,0,0
1565373781843.75,-128,66,-95,0,0,0,0,0
1565373781875,-128,56,-78,0,0,0,0,0
1565373781906.25,-45,0,17,0,0,0,0,0
1565373781937.5,-9,1,18,0,0,0,0,0
1565373781968.75,-4,-7,24,0,0,0,0,0
1565373782000,-45,3,-7,0,0,0,0,0
1565373782031.25,-30,19,-4,0,0,0,0,0
1565373782062.5,-36,23,2,0,0,0,0,0
1565373782093.75,-42,15,15,0,0,0,0,0
1565373782125,-70,7,16,0,0,0,0,0
1565373782156.25,-92,3,18,0,0,0,0,0
1565373782187.5,-103,11,22,0,0,0,0,0
1565373782218.75,-85,11,4,0,0,0,0,0
1565373782250,-64,14,-8,0,0,0,0,0
1565373782281.25,-52,13,-8,0,0,0,0,0
1565373782312.5,-91,33,-18,0,0,0,0,0
1565373782343.75,-75,35,-3,0,0,0,0,0
1565373782375,-75,18,17,0,0,0,0,0
1565373782406.25,-63,9,10,0,0,0,0,0
1565373782437.5,-48,8,10,0,0,0,0,0
1565373782468.75,-39,5,6,0,0,0,0,0
1565373782500,-36,-5,3,0,0,0,0,0
1565373782531.25,-48,-7,-13,0,0,0,0,0
1565373782562.5,-36,13,-19,0,0,0,0,0
1565373782593.75,-28,22,-14,0,0,0,0,0
1565373782625,-82,33,-18,0,0,0,0,0
1565373782656.25,-128,0,-4,0,0,0,0,0
1565373782687.5,-128,-17,7,0,0,0,0,0
1565373782718.75,-110,-7,-4,0,0,0,0,0
1565373782750,-64,7,-6,0,0,0,0,0
1565373782781.25,-53,15,-6,0,0,0,0,0
1565373782812.5,-19,19,-12,0,0,0,0,0
1565373782843.75,-38,20,-14,0,0,0,0,0
1565373782875,-38,19,-7,0,0,0,0,0
1565373782906.25,-37,24,13,0,0,0,0,0
1565373782937.5,-34,27,22,0,0,0,0,0
1565373782968.75,-30,33,16,0,0,0,0,0
1565373783000,-75,43,0,0,0,0,0,0
1565373783031.25,-106,16,-8,0,0,0,0,0
1565373783062.5,-82,26,-2,0,0,0,0,0
1565373783093.75,-66,49,8,0,0,0,0,0
1565373783125,-80,51,15,0,0,0,0,0
1565373783156.25,-75,40,-2,0,0,0,0,0
1565373783187.5,-65,8,-8,0,0,0,0,0
1565373783218.75,-43,-2,6,0,0,0,0,0
1565373783250,-29,-10,12,0,0,0,0,0
1565373783281.25,-37,-6,2,0,0,0,0,0
1565373783312.5,-42,-2,12,0,0,0,0,0
1565373783343.75,-61,13,-6,0,0,0,0,0
1565373783375,-95,18,-44,0,0,0,0,0
1565373783406.25,-115,13,-49,0,0,0,0,0
1565373783437.5,-81,22,-36,0,0,0,0,0
1565373783468.75,-122,-32,104,0,0,0,0,0
1565373783500,-75,-5,46,0,0,0,0,0
1565373783531.25,-45,30,1,0,0,0,0,0
1565373783562.5,-27,33,0,0,0,0,0,0
1565373783593.75,-30,33,-1,0,0,0,0,0
1565373783625,-29,25,-3,0,0,0,0,0
1565373783656.25,-48,13,4,0,0,0,0,0
1565373783687.5,-49,6,17,0,0,0,0,0
1565373783718.75,-59,4,26,0,0,0,0,0
1565373783750,-76,18,3,0,0,0,0,0
1565373783781.25,-75,16,8,0,0,0,0,0
1565373783812.5,-83,23,31,0,0,0,0,0
1565373783843.75,-87,42,28,0,0,0,0,0
1565373783875,-63,45,-4,0,0,0,0,0
1565373783906.25,-86,27,2,0,0,0,0,0
1565373783937.5,-90,23,-10,0,0,0,0,0
1565373783968.75,-106,11,-13,0,0,0,0,0
1565373784000,-54,-6,15,0,0,0,0,0
1565373784031.25,-36,-6,25,0,0,0,0,0
1565373784062.5,-29,2,19,0,0,0,0,0
1565373784093.75,-31,5,10,0,0,0,0,0
1565373784125,-36,6,7,0,0,0,0,0
1565373784156.25,-51,9,4,0,0,0,0,0
1565373784187.5,-59,12,7,0,0,0,0,0
1565373784218.75,-70,14,7,0,0,0,0,0
1565373784250,-83,16,15,0,0,0,0,0
1565373784281.25,-111,3,15,0,0,0,0,0
1565373784312.5,-98,-4,10,0,0,0,0,0
1565373784343.75,-88,-12,13,0,0,0,0,0
1565373784375,-60,-10,21,0,0,0,0,0
1565373784406.25,-52,-8,24,0,0,0,0,0
1565373784437.5,-46,2,17,0,0,0,0,0
1565373784468.75,-51,17,-3,0,0,0,0,0
1565373784500,-53,20,-5,0,0,0,0,0
1565373784531.25,-50,14,8,0,0,0,0,0
1565373784562.5,-46,9,18,0,0,0,0,0
1565373784593.75,-47,2,29,0,0,0,0,0
1565373784625,-59,6,28,0,0,0,0,0
1565373784656.25,-62,11,27,0,0,0,0,0
1565373784687.5,-70,14,20,0,0,0,0,0
1565373784718.75,-76,7,17,0,0,0,0,0
1565373784750,-76,5,21,0,0,0,0,0
1565373784781.25,-68,-2,11,0,0,0,0,0
1565373784812.5,-69,10,-2,0,0,0,0,0
1565373784843.75,-75,16,-4,0,0,0,0,0
1565373784875,-83,32,-7,0,0,0,0,0
1565373784906.25,-72,20,0,0,0,0,0,0
1565373784937.5,-66,11,4,0,0,0,0,0
1565373784968.75,-50,3,7,0,0,0,0,0
1565373785000,-48,5,6,0,0,0,0,0
1565373785031.25,-54,6,8,0,0,0,0,0
1565373785062.5,-59,5,8,0,0,0,0,0
1565373785093.75,-58,3,8,0,0,0,0,0
1565373785125,-60,-5,6,0,0,0,0,0
1565373785156.25,-89,-33,1,0,0,0,0,0
1565373785187.5,-86,-42,7,0,0,0,0,0
1565373785218.75,-77,-24,8,0,0,0,0,0
1565373785250,-76,-2,17,0,0,0,0,0
1565373785281.25,-70,3,22,0,0,0,0,0
1565373785312.5,-61,4,15,0,0,0,0,0
1565373785343.75,-51,3,11,0,0,0,0,0
1565373785375,-45,-1,10,0,0,0,0,0
1565373785406.25,-36,-4,12,0,0,0,0,0
1565373785437.5,-43,-7,12,0,0,0,0,0
1565373785468.75,-55,-10,12,0,0,0,0,0
1565373785500,-64,-14,16,0,0,0,0,0
1565373785531.25,-78,-12,23,0,0,0,0,0
1565373785562.5,-78,-12,29,0,0,0,0,0
1565373785593.75,-78,-10,31,0,0,0,0,0
1565373785625,-65,-5,33,0,0,0,0,0
1565373785656.25,-60,-3,33,0,0,0,0,0
1565373785687.5,-61,-6,27,0,0,0,0,0
1565373785718.75,-72,-10,9,0,0,0,0,0
1565373785750,-71,-11,3,0,0,0,0,0
1565373785781.25,-58,-1,4,0,0,0,0,0
1565373785812.5,-59,5,7,0,0,0,0,0
1565373785843.75,-77,9,8,0,0,0,0,0
1565373785875,-67,3,20,0,0,0,0,0
1565373785906.25,-66,3,19,0,0,0,0,0
1565373785937.5,-52,6,20,0,0,0,0,0
1565373785968.75,-44,6,17,0,0,0,0,0
1565373786000,-46,9,10,0,0,0,0,0
1565373786031.25,-49,10,8,0,0,0,0,0
1565373786062.5,-60,12,13,0,0,0,0,0
1565373786093.75,-66,8,16,0,0,0,0,0
1565373786125,-73,-3,28,0,0,0,0,0
1565373786156.25,-66,-5,37,0,0,0,0,0
1565373786187.5,-63,1,36,0,0,0,0,0
1565373786218.75,-64,12,24,0,0,0,0,0
1565373786250,-60,17,17,0,0,0,0,0
1565373786281.25,-63,16,13,0,0,0,0,0
1565373786312.5,-75,-1,15,0,0,0,0,0
1565373786343.75,-79,-25,11,0,0,0,0,0
1565373786375,-74,-33,18,0,0,0,0,0
1565373786406.25,-53,-31,43,0,0,0,0,0
1565373786437.5,-53,-24,45,0,0,0,0,0
1565373786468.75,-62,-13,21,0,0,0,0,0
1565373786500,-53,2,11,0,0,0,0,0
1565373786531.25,-48,7,11,0,0,0,0,0
1565373786562.5,-40,10,15,0,0,0,0,0
1565373786593.75,-35,6,25,0,0,0,0,0
1565373786625,-38,4,28,0,0,0,0,0
1565373786656.25,-54,1,26,0,0,0,0,0
1565373786687.5,-79,1,26,0,0,0,0,0
1565373786718.75,-97,-5,24,0,0,0,0,0
1565373786750,-98,-23,1,0,0,0,0,0
1565373786781.25,-74,-3,6,0,0,0,0,0
1565373786812.5,-71,14,15,0,0,0,0,0
1565373786843.75,-66,20,19,0,0,0,0,0
1565373786875,-75,-2,6,0,0,0,0,0
1565373786906.25,-66,-11,11,0,0,0,0,0
1565373786937.5,-40,-10,19,0,0,0,0,0
1565373786968.75,-30,-9,22,0,0,0,0,0
1565373787000,-32,-11,21,0,0,0,0,0
1565373787031.25,-41,-18,19,0,0,0,0,0
1565373787062.5,-44,-18,18,0,0,0,0,0
1565373787093.75,-44,-19,19,0,0,0,0,0
1565373787125,-43,-15,30,0,0,0,0,0
1565373787156.25,-57,-24,39,0,0,0,0,0
1565373787187.5,-101,-57,27,0,0,0,0,0
1565373787218.75,-128,-71,-10,0,0,0,0,0
1565373787250,-120,-47,-15,0,0,0,0,0
1565373787281.25,-11,-26,25,0,0,0,0,0
1565373787312.5,-23,-23,24,0,0,0,0,0
1565373787343.75,-44,-21,4,0,0,0,0,0
1565373787375,-49,-7,-14,0,0,0,0,0
1565373787406.25,-35,1,-8,0,0,0,0,0
1565373787437.5,-39,3,-2,0,0,0,0,0
1565373787468.75,-49,3,7,0,0,0,0,0
1565373787500,-58,0,36,0,0,0,0,0
1565373787531.25,-65,-6,50,0,0,0,0,0
1565373787562.5,-117,-20,27,0,0,0,0,0
1565373787593.75,-128,-61,-25,0,0,0,0,0
1565373787625,-100,-40,-20,0,0,0,0,0
1565373787656.25,-49,-20,-11,0,0,0,0,0
1565373787687.5,-61,-8,-19,0,0,0,0,0
1565373787718.75,-60,-19,-4,0,0,0,0,0
1565373787750,-47,-27,12,0,0,0,0,0
1565373787781.25,-45,-30,17,0,0,0,0,0
1565373787812.5,-34,-23,15,0,0,0,0,0
1565373787843.75,-32,-20,6,0,0,0,0,0
1565373787875,-33,-23,-1,0,0,0,0,0
1565373787906.25,-34,-22,-4,0,0,0,0,0
1565373787937.5,-50,-22,-10,0,0,0,0,0
1565373787968.75,-63,-25,-10,0,0,0,0,0
1565373788000,-80,-36,-14,0,0,0,0,0
1565373788031.25,-95,-63,-10,0,0,0,0,0
1565373788062.5,-96,-79,6,0,0,0,0,0
1565373788093.75,-84,-79,3,0,0,0,0,0
1565373788125,-46,-39,3,0,0,0,0,0
1565373788156.25,-38,-34,-1,0,0,0,0,0
1565373788187.5,-44,-20,-3,0,0,0,0,0
1565373788218.75,-28,-7,-3,0,0,0,0,0
1565373788250,-25,0,-6,0,0,0,0,0
1565373788281.25,-35,1,-10,0,0,0,0,0
1565373788312.5,-41,-1,0,0,0,0,0,0
1565373788343.75,-43,-6,0,0,0,0,0,0
1565373788375,-59,-17,-15,0,0,0,0,0
1565373788406.25,-93,-48,-10,0,0,0,0,0
1565373788437.5,-109,-69,-27,0,0,0,0,0
1565373788468.75,-92,-55,-56,0,0,0,0,0
1565373788500,-54,-56,-33,0,0,0,0,0
1565373788531.25,-55,-31,-32,0,0,0,0,0
1565373788562.5,-73,-8,-31,0,0,0,0,0
1565373788593.75,-62,-8,-32,0,0,0,0,0
1565373788625,-34,-6,-15,0,0,0,0,0
1565373788656.25,-30,-13,-19,0,0,0,0,0
1565373788687.5,-33,-14,-37,0,0,0,0,0
1565373788718.75,-32,-21,-26,0,0,0,0,0
1565373788750,-25,-19,-13,0,0,0,0,0
1565373788781.25,-22,-19,-19,0,0,0,0,0
1565373788812.5,-27,-28,-35,0,0,0,0,0
1565373788843.75,-71,-32,-82,0,0,0,0,0
1565373788875,-68,-34,-75,0,0,0,0,0
1565373788906.25,-86,-55,-53,0,0,0,0,0
1565373788937.5,-73,-30,-70,0,0,0,0,0
1565373788968.75,-56,-12,-63,0,0,0,0,0
1565373789000,-40,7,-32,0,0,0,0,0
1565373789031.25,-31,11,-23,0,0,0,0,0
1565373789062.5,-30,10,-15,0,0,0,0,0
1565373789093.75,-38,7,-15,0,0,0,0,0
1565373789125,-38,8,-18,0,0,0,0,0
1565373789156.25,-37,8,-12,0,0,0,0,0
1565373789187.5,-30,10,-12,0,0,0,0,0
1565373789218.75,-28,16,-21,0,0,0,0,0
1565373789250,-34,17,-34,0,0,0,0,0
1565373789281.25,-62,-1,-83,0,0,0,0,0
1565373789312.5,-68,-12,-97,0,0,0,0,0
1565373789343.75,-29,-26,-77,0,0,0,0,0
1565373789375,-40,-13,-80,0,0,0,0,0
1565373789406.25,-56,-5,-80,0,0,0,0,0
1565373789437.5,-45,0,-71,0,0,0,0,0
1565373789468.75,-30,-3,-46,0,0,0,0,0
1565373789500,-39,-4,-41,0,0,0,0,0
1565373789531.25,-34,0,-39,0,0,0,0,0
1565373789562.5,-32,1,-42,0,0,0,0,0
1565373789593.75,-34,0,-40,0,0,0,0,0
1565373789625,-38,-3,-42,0,0,0,0,0
1565373789656.25,-46,-4,-61,0,0,0,0,0
1565373789687.5,-49,-8,-78,0,0,0,0,0
1565373789718.75,-41,-34,-64,0,0,0,0,0
1565373789750,-64,-43,-48,0,0,0,0,0
1565373789781.25,-70,-29,-34,0,0,0,0,0
1565373789812.5,-39,6,-35,0,0,0,0,0
1565373789843.75,-36,11,-39,0,0,0,0,0
1565373789875,-40,0,-39,0,0,0,0,0
1565373789906.25,-39,-15,-34,0,0,0,0,0
1565373789937.5,-39,-18,-32,0,0,0,0,0
1565373789968.75,-53,-24,-26,0,0,0,0,0
1565373790000,-66,-30,-20,0,0,0,0,0
1565373790031.25,-71,-22,-16,0,0,0,0,0
1565373790062.5,-53,-2,-6,0,0,0,0,0
1565373790093.75,-65,8,0,0,0,0,0,0
1565373790125,-75,3,-7,0,0,0,0,0
1565373790156.25,-37,-9,20,0,0,0,0,0
1565373790187.5,-82,4,9,0,0,0,0,0
1565373790218.75,-108,-19,-5,0,0,0,0,0
1565373790250,-78,-33,14,0,0,0,0,0
1565373790281.25,-75,-20,18,0,0,0,0,0
1565373790312.5,-67,-4,17,0,0,0,0,0
1565373790343.75,-60,4,21,0,0,0,0,0
1565373790375,-57,4,22,0,0,0,0,0
1565373790406.25,-54,0,25,0,0,0,0,0
1565373790437.5,-51,-4,19,0,0,0,0,0
1565373790468.75,-58,-6,18,0,0,0,0,0
1565373790500,-65,-16,24,0,0,0,0,0
1565373790531.25,-65,-13,23,0,0,0,0,0
1565373790562.5,-65,-9,21,0,0,0,0,0
1565373790593.75,-52,0,27,0,0,0,0,0
1565373790625,-56,8,40,0,0,0,0,0
1565373790656.25,-42,0,46,0,0,0,0,0
1565373790687.5,-45,0,58,0,0,0,0,0
1565373790718.75,-59,3,51,0,0,0,0,0
1565373790750,-53,4,49,0,0,0,0,0
1565373790781.25,-46,12,45,0,0,0,0,0
1565373790812.5,-36,17,42,0,0,0,0,0
1565373790843.75,-37,16,38,0,0,0,0,0
1565373790875,-26,15,33,0,0,0,0,0
1565373790906.25,-44,12,24,0,0,0,0,0
1565373790937.5,-58,7,21,0,0,0,0,0
1565373790968.75,-56,1,30,0,0,0,0,0
1565373791000,-78,3,23,0,0,0,0,0
1565373791031.25,-61,2,26,0,0,0,0,0
1565373791062.5,-79,-2,19,0,0,0,0,0
1565373791093.75,-81,-2,20,0,0,0,0,0
1565373791125,-71,0,15,0,0,0,0,0
1565373791156.25,-65,0,13,0,0,0,0,0
1565373791187.5,-62,1,13,0,0,0,0,0
1565373791218.75,-58,0,15,0,0,0,0,0
1565373791250,-51,-3,20,0,0,0,0,0
1565373791281.25,-58,-4,15,0,0,0,0,0
1565373791312.5,-62,-4,13,0,0,0,0,0
1565373791343.75,-68,-3,20,0,0,0,0,0
1565373791375,-64,0,23,0,0,0,0,0
1565373791406.25,-71,1,14,0,0,0,0,0
1565373791437.5,-74,1,9,0,0,0,0,0
1565373791468.75,-68,2,10,0,0,0,0,0
1565373791500,-57,3,11,0,0,0,0,0
1565373791531.25,-57,4,12,0,0,0,0,0
1565373791562.5,-58,4,15,0,0,0,0,0
1565373791593.75,-67,4,19,0,0,0,0,0
1565373791625,-70,4,18,0,0,0,0,0
1565373791656.25,-72,3,14,0,0,0,0,0
1565373791687.5,-66,3,13,0,0,0,0,0
1565373791718.75,-62,3,13,0,0,0,0,0
1565373791750,-54,3,15,0,0,0,0,0
1565373791781.25,-56,4,18,0,0,0,0,0
1565373791812.5,-59,3,17,0,0,0,0,0
1565373791843.75,-67,1,17,0,0,0,0,0
1565373791875,-67,0,15,0,0,0,0,0
1565373791906.25,-66,0,16,0,0,0,0,0
1565373791937.5,-64,4,18,0,0,0,0,0
1565373791968.75,-60,7,14,0,0,0,0,0
1565373792000,-58,8,15,0,0,0,0,0
1565373792031.25,-59,6,17,0,0,0,0,0
1565373792062.5,-67,4,18,0,0,0,0,0
1565373792093.75,-64,4,20,0,0,0,0,0
1565373792125,-64,8,16,0,0,0,0,0
1565373792156.25,-66,11,14,0,0,0,0,0
1565373792187.5,-69,10,16,0,0,0,0,0
1565373792218.75,-66,12,16,0,0,0,0,0
1565373792250,-60,13,16,0,0,0,0,0
1565373792281.25,-59,14,16,0,0,0,0,0
1565373792312.5,-59,12,15,0,0,0,0,0
1565373792343.75,-61,9,14,0,0,0,0,0
1565373792375,-70,4,21,0,0,0,0,0
1565373792406.25,-75,1,22,0,0,0,0,0
1565373792437.5,-74,0,18,0,0,0,0,0
1565373792468.75,-67,-4,11,0,0,0,0,0
1565373792500,-60,-4,1,0,0,0,0,0
1565373792531.25,-61,-7,-1,0,0,0,0,0
1565373792562.5,-58,-19,0,0,0,0,0,0
1565373792593.75,-46,-16,18,0,0,0,0,0
1565373792625,-56,-13,13,0,0,0,0,0
1565373792656.25,-43,2,-14,0,0,0,0,0
1565373792687.5,-47,14,-22,0,0,0,0,0
1565373792718.75,-49,12,-23,0,0,0,0,0
1565373792750,-88,4,-50,0,0,0,0,0
1565373792781.25,-53,1,-32,0,0,0,0,0
1565373792812.5,-46,1,-28,0,0,0,0,0
1565373792843.75,-58,-2,-34,0,0,0,0,0
1565373792875,-66,4,-40,0,0,0,0,0
1565373792906.25,-59,7,-35,0,0,0,0,0
1565373792937.5,-48,-1,-32,0,0,0,0,0
1565373792968.75,-67,-10,-39,0,0,0,0,0
1565373793000,-68,-25,-23,0,0,0,0,0
1565373793031.25,-62,-19,-20,0,0,0,0,0
1565373793062.5,-56,-11,-22,0,0,0,0,0
1565373793093.75,-56,4,-25,0,0,0,0,0
1565373793125,-66,7,-37,0,0,0,0,0
1565373793156.25,-74,3,-42,0,0,0,0,0
1565373793187.5,-71,5,-40,0,0,0,0,0
1565373793218.75,-42,8,-45,0,0,0,0,0
1565373793250,-35,4,-40,0,0,0,0,0
1565373793281.25,-39,-4,-31,0,0,0,0,0
1565373793312.5,-38,-1,-31,0,0,0,0,0
1565373793343.75,-43,7,-36,0,0,0,0,0
1565373793375,-50,21,-35,0,0,0,0,0
1565373793406.25,-66,17,-45,0,0,0,0,0
1565373793437.5,-63,13,-44,0,0,0,0,0
1565373793468.75,-75,11,-57,0,0,0,0,0
1565373793500,-61,9,-57,0,0,0,0,0
1565373793531.25,-56,2,-48,0,0,0,0,0
1565373793562.5,-67,-5,-51,0,0,0,0,0
1565373793593.75,-6,-25,-14,0,0,0,0,0
1565373793625,-14,-29,-7,0,0,0,0,0
1565373793656.25,-54,-17,5,0,0,0,0,0
1565373793687.5,-62,-6,-4,0,0,0,0,0
1565373793718.75,-77,0,-18,0,0,0,0,0
1565373793750,-75,-20,-4,0,0,0,0,0
1565373793781.25,-63,-19,2,0,0,0,0,0
1565373793812.5,-66,-16,-13,0,0,0,0,0
1565373793843.75,-60,-5,-24,0,0,0,0,0
1565373793875,-54,-4,-19,0,0,0,0,0
1565373793906.25,-61,-3,-10,0,0,0,0,0
1565373793937.5,-70,-3,-2,0,0,0,0,0
1565373793968.75,-80,-3,-3,0,0,0,0,0
1565373794000,-48,0,18,0,0,0,0,0
1565373794031.25,-46,0,28,0,0,0,0,0
1565373794062.5,-65,-1,22,0,0,0,0,0
1565373794093.75,-79,0,16,0,0,0,0,0
1565373794125,-57,-2,26,0,0,0,0,0
1565373794156.25,-60,-3,27,0,0,0,0,0
1565373794187.5,-71,-1,31,0,0,0,0,0
1565373794218.75,-73,2,22,0,0,0,0,0
1565373794250,-68,4,17,0,0,0,0,0
1565373794281.25,-53,10,14,0,0,0,0,0
1565373794312.5,-48,11,14,0,0,0,0,0
1565373794343.75,-73,1,13,0,0,0,0,0
1565373794375,-70,5,18,0,0,0,0,0
1565373794406.25,-60,6,23,0,0,0,0,0
1565373794437.5,-61,5,22,0,0,0,0,0
1565373794468.75,-51,5,21,0,0,0,0,0
1565373794500,-47,5,19,0,0,0,0,0
1565373794531.25,-51,4,17,0,0,0,0,0
1565373794562.5,-57,5,12,0,0,0,0,0
1565373794593.75,-55,6,15,0,0,0,0,0
1565373794625,-52,18,15,0,0,0,0,0
1565373794656.25,-61,15,22,0,0,0,0,0
1565373794687.5,-63,13,23,0,0,0,0,0
1565373794718.75,-62,16,28,0,0,0,0,0
1565373794750,-65,19,30,0,0,0,0,0
1565373794781.25,-67,18,30,0,0,0,0,0
1565373794812.5,-84,11,16,0,0,0,0,0
1565373794843.75,-87,-9,13,0,0,0,0,0
1565373794875,-62,-16,16,0,0,0,0,0
1565373794906.25,-53,-12,6,0,0,0,0,0
1565373794937.5,-50,-14,2,0,0,0,0,0
1565373794968.75,-49,-22,-5,0,0,0,0,0
1565373795000,-56,-7,-15,0,0,0,0,0
1565373795031.25,-54,5,-13,0,0,0,0,0
1565373795062.5,-75,10,-13,0,0,0,0,0
1565373795093.75,-59,18,-9,0,0,0,0,0
1565373795125,-56,20,-2,0,0,0,0,0
1565373795156.25,-82,18,4,0,0,0,0,0
1565373795187.5,-77,18,-12,0,0,0,0,0
1565373795218.75,-71,16,-13,0,0,0,0,0
1565373795250,-49,7,-12,0,0,0,0,0
1565373795281.25,-49,4,-11,0,0,0,0,0
1565373795312.5,-54,3,-18,0,0,0,0,0
1565373795343.75,-70,-2,-34,0,0,0,0,0
1565373795375,-78,-16,-50,0,0,0,0,0
1565373795406.25,-73,-23,-54,0,0,0,0,0
1565373795437.5,-71,-23,-57,0,0,0,0,0
1565373795468.75,-48,-13,-40,0,0,0,0,0
1565373795500,-43,-12,-41,0,0,0,0,0
1565373795531.25,-40,-10,-39,0,0,0,0,0
1565373795562.5,-47,7,-38,0,0,0,0,0
1565373795593.75,-45,16,-31,0,0,0,0,0
1565373795625,-52,16,-32,0,0,0,0,0
1565373795656.25,-59,23,-41,0,0,0,0,0
1565373795687.5,-54,24,-36,0,0,0,0,0
1565373795718.75,-52,20,-34,0,0,0,0,0
1565373795750,-50,20,-40,0,0,0,0,0
1565373795781.25,-51,17,-41,0,0,0,0,0
1565373795812.5,-48,10,-33,0,0,0,0,0
1565373795843.75,-54,12,-34,0,0,0,0,0
1565373795875,-48,28,-32,0,0,0,0,0
1565373795906.25,-44,30,-29,0,0,0,0,0
1565373795937.5,-49,26,-33,0,0,0,0,0
1565373795968.75,-54,16,-47,0,0,0,0,0
1565373796000,-53,13,-42,0,0,0,0,0
1565373796031.25,-55,14,-37,0,0,0,0,0
1565373796062.5,-47,21,-25,0,0,0,0,0
1565373796093.75,-46,35,-20,0,0,0,0,0
1565373796125,-50,40,-17,0,0,0,0,0
1565373796156.25,-46,36,-17,0,0,0,0,0
1565373796187.5,-44,32,-19,0,0,0,0,0
1565373796218.75,-41,24,-14,0,0,0,0,0
1565373796250,-42,26,-16,0,0,0,0,0
1565373796281.25,-44,28,-20,0,0,0,0,0
1565373796312.5,-48,38,-28,0,0,0,0,0
1565373796343.75,-69,44,-45,0,0,0,0,0
1565373796375,-64,35,-40,0,0,0,0,0
1565373796406.25,-62,36,-35,0,0,0,0,0
1565373796437.5,-41,42,-39,0,0,0,0,0
1565373796468.75,-35,40,-43,0,0,0,0,0
1565373796500,-38,35,-51,0,0,0,0,0
1565373796531.25,-37,21,-47,0,0,0,0,0
1565373796562.5,-38,17,-42,0,0,0,0,0
1565373796593.75,-37,16,-32,0,0,0,0,0
1565373796625,-41,16,-31,0,0,0,0,0
1565373796656.25,-41,17,-31,0,0,0,0,0
1565373796687.5,-38,21,-33,0,0,0,0,0
1565373796718.75,-32,24,-36,0,0,0,0,0
1565373796750,-31,24,-36,0,0,0,0,0
1565373796781.25,-39,24,-44,0,0,0,0,0
1565373796812.5,-44,20,-47,0,0,0,0,0
1565373796843.75,-44,22,-52,0,0,0,0,0
1565373796875,-39,22,-52,0,0,0,0,0
1565373796906.25,-40,23,-51,0,0,0,0,0
1565373796937.5,-44,19,-58,0,0,0,0,0
1565373796968.75,-58,5,-59,0,0,0,0,0
1565373797000,-74,3,-59,0,0,0,0,0
1565373797031.25,-66,6,-56,0,0,0,0,0
1565373797062.5,-35,16,-43,0,0,0,0,0
1565373797093.75,-30,24,-39,0,0,0,0,0
1565373797125,-27,35,-37,0,0,0,0,0
1565373797156.25,-33,43,-27,0,0,0,0,0
1565373797187.5,-38,44,-2,0,0,0,0,0
1565373797218.75,-60,36,-2,0,0,0,0,0
1565373797250,-69,4,20,0,0,0,0,0
1565373797281.25,-79,-21,50,0,0,0,0,0
1565373797312.5,-97,-45,59,0,0,0,0,0
1565373797343.75,-79,-35,56,0,0,0,0,0
1565373797375,-79,-25,44,0,0,0,0,0
1565373797406.25,-51,-13,33,0,0,0,0,0
1565373797437.5,-41,3,25,0,0,0,0,0
1565373797468.75,-41,8,31,0,0,0,0,0
1565373797500,-54,8,23,0,0,0,0,0
1565373797531.25,-48,6,19,0,0,0,0,0
1565373797562.5,-40,-7,36,0,0,0,0,0
1565373797593.75,-41,-16,4,0,0,0,0,0
1565373797625,-60,-29,54,0,0,0,0,0
1565373797656.25,-40,7,52,0,0,0,0,0
1565373797687.5,-45,22,46,0,0,0,0,0
1565373797718.75,-49,25,48,0,0,0,0,0
1565373797750,-53,23,51,0,0,0,0,0
1565373797781.25,-58,20,46,0,0,0,0,0
1565373797812.5,-55,25,46,0,0,0,0,0
1565373797843.75,-43,28,48,0,0,0,0,0
1565373797875,-41,35,51,0,0,0,0,0
1565373797906.25,-41,35,54,0,0,0,0,0
1565373797937.5,-42,26,54,0,0,0,0,0
1565373797968.75,-54,17,44,0,0,0,0,0
1565373798000,-51,18,40,0,0,0,0,0
1565373798031.25,-35,20,27,0,0,0,0,0
1565373798062.5,-41,9,15,0,0,0,0,0
1565373798093.75,-61,2,9,0,0,0,0,0
1565373798125,-78,-21,25,0,0,0,0,0
1565373798156.25,-80,-24,21,0,0,0,0,0
1565373798187.5,-75,-15,15,0,0,0,0,0
1565373798218.75,-67,-13,4,0,0,0,0,0
1565373798250,-71,-21,3,0,0,0,0,0
1565373798281.25,-54,-27,18,0,0,0,0,0
1565373798312.5,-51,-23,29,0,0,0,0,0
1565373798343.75,-46,-16,32,0,0,0,0,0
1565373798375,-28,-3,41,0,0,0,0,0
1565373798406.25,-47,-19,62,0,0,0,0,0
1565373798437.5,-57,-19,57,0,0,0,0,0
1565373798468.75,-54,-25,22,0,0,0,0,0
1565373798500,-59,-30,19,0,0,0,0,0
1565373798531.25,-40,-26,23,0,0,0,0,0
1565373798562.5,-11,-37,27,0,0,0,0,0
1565373798593.75,-20,-58,27,0,0,0,0,0
1565373798625,-58,-75,26,0,0,0,0,0
1565373798656.25,-79,-75,28,0,0,0,0,0
1565373798687.5,-62,-51,37,0,0,0,0,0
1565373798718.75,-58,-38,42,0,0,0,0,0
1565373798750,-60,-14,40,0,0,0,0,0
1565373798781.25,-62,-2,22,0,0,0,0,0
1565373798812.5,-64,2,11,0,0,0,0,0
1565373798843.75,-67,-1,2,0,0,0,0,0
1565373798875,-67,-7,5,0,0,0,0,0
1565373798906.25,-60,-25,18,0,0,0,0,0
1565373798937.5,-47,-47,35,0,0,0,0,0
1565373798968.75,-38,-53,40,0,0,0,0,0
1565373799000,-9,-55,52,0,0,0,0,0
1565373799031.25,-17,-48,54,0,0,0,0,0
1565373799062.5,3,-50,73,0,0,0,0,0
1565373799093.75,-62,-51,38,0,0,0,0,0
1565373799125,-52,-57,18,0,0,0,0,0
1565373799156.25,-44,-48,18,0,0,0,0,0
1565373799187.5,-27,-39,23,0,0,0,0,0
1565373799218.75,-35,-46,30,0,0,0,0,0
1565373799250,-44,-52,27,0,0,0,0,0
1565373799281.25,-51,-55,18,0,0,0,0,0
1565373799312.5,-49,-46,17,0,0,0,0,0
1565373799343.75,-46,-40,20,0,0,0,0,0
1565373799375,-45,-32,19,0,0,0,0,0
1565373799406.25,-56,-33,14,0,0,0,0,0
1565373799437.5,-62,-35,12,0,0,0,0,0
1565373799468.75,-65,-37,12,0,0,0,0,0
1565373799500,-62,-38,14,0,0,0,0,0
1565373799531.25,-51,-35,21,0,0,0,0,0
1565373799562.5,-44,-28,24,0,0,0,0,0
1565373799593.75,-45,-26,22,0,0,0,0,0
1565373799625,-52,-29,18,0,0,0,0,0
1565373799656.25,-55,-33,20,0,0,0,0,0
1565373799687.5,-56,-35,23,0,0,0,0,0
1565373799718.75,-53,-37,31,0,0,0,0,0
1565373799750,-51,-37,41,0,0,0,0,0
1565373799781.25,-54,-30,55,0,0,0,0,0
1565373799812.5,-67,-15,83,0,0,0,0,0
1565373799843.75,-13,-11,66,0,0,0,0,0
1565373799875,3,-10,65,0,0,0,0,0
1565373799906.25,-45,-18,51,0,0,0,0,0
1565373799937.5,-65,-55,49,0,0,0,0,0
1565373799968.75,-55,-64,43,0,0,0,0,0
1565373800000,-27,-67,29,0,0,0,0,0
1565373800031.25,-33,-64,5,0,0,0,0,0
1565373800062.5,-41,-57,-1,0,0,0,0,0
1565373800093.75,-42,-47,-2,0,0,0,0,0
1565373800125,-28,-44,0,0,0,0,0,0
1565373800156.25,-30,-49,3,0,0,0,0,0
1565373800187.5,-27,-54,3,0,0,0,0,0
1565373800218.75,-18,-51,5,0,0,0,0,0
1565373800250,-4,-42,15,0,0,0,0,0
1565373800281.25,1,-52,25,0,0,0,0,0
1565373800312.5,0,-61,30,0,0,0,0,0
1565373800343.75,-3,-70,37,0,0,0,0,0
1565373800375,-5,-81,52,0,0,0,0,0
1565373800406.25,1,-79,57,0,0,0,0,0
1565373800437.5,90,-88,67,0,0,0,0,0
1565373800468.75,-116,-68,-19,0,0,0,0,0
1565373800500,-91,-58,15,0,0,0,0,0
1565373800531.25,-58,-50,14,0,0,0,0,0
1565373800562.5,-4,-57,44,0,0,0,0,0
1565373800593.75,-6,-64,40,0,0,0,0,0
1565373800625,-10,-70,27,0,0,0,0,0
1565373800656.25,-26,-64,7,0,0,0,0,0
1565373800687.5,-30,-59,5,0,0,0,0,0
1565373800718.75,-36,-52,5,0,0,0,0,0
1565373800750,-36,-49,7,0,0,0,0,0
1565373800781.25,-32,-47,11,0,0,0,0,0
1565373800812.5,-28,-46,13,0,0,0,0,0
1565373800843.75,-28,-47,15,0,0,0,0,0
1565373800875,-27,-51,19,0,0,0,0,0
1565373800906.25,-25,-56,23,0,0,0,0,0
1565373800937.5,-22,-59,25,0,0,0,0,0
1565373800968.75,-20,-62,27,0,0,0,0,0
1565373801000,-22,-61,28,0,0,0,0,0
1565373801031.25,-23,-59,28,0,0,0,0,0
1565373801062.5,-25,-56,28,0,0,0,0,0
1565373801093.75,-27,-55,28,0,0,0,0,0
1565373801125,-29,-56,28,0,0,0,0,0
1565373801156.25,-29,-59,29,0,0,0,0,0
1565373801187.5,-25,-60,30,0,0,0,0,0
1565373801218.75,-22,-60,29,0,0,0,0,0
1565373801250,-16,-61,28,0,0,0,0,0
1565373801281.25,-15,-61,26,0,0,0,0,0
1565373801312.5,-16,-61,25,0,0,0,0,0
1565373801343.75,-20,-59,23,0,0,0,0,0
1565373801375,-24,-58,21,0,0,0,0,0
1565373801406.25,-25,-57,20,0,0,0,0,0
1565373801437.5,-25,-58,18,0,0,0,0,0
1565373801468.75,-24,-58,18,0,0,0,0,0
1565373801500,-22,-58,18,0,0,0,0,0
1565373801531.25,-21,-57,18,0,0,0,0,0
1565373801562.5,-21,-56,18,0,0,0,0,0
1565373801593.75,-22,-54,19,0,0,0,0,0
1565373801625,-22,-53,20,0,0,0,0,0
1565373801656.25,-22,-53,21,0,0,0,0,0
1565373801687.5,-21,-51,23,0,0,0,0,0
1565373801718.75,-21,-51,25,0,0,0,0,0
1565373801750,-21,-51,26,0,0,0,0,0
1565373801781.25,-22,-53,26,0,0,0,0,0
1565373801812.5,-22,-54,26,0,0,0,0,0
1565373801843.75,-22,-55,26,0,0,0,0,0
1565373801875,-22,-55,27,0,0,0,0,0
1565373801906.25,-22,-56,27,0,0,0,0,0
1565373801937.5,-22,-56,27,0,0,0,0,0
1565373801968.75,-22,-57,27,0,0,0,0,0
1565373802000,-22,-57,25,0,0,0,0,0
1565373802031.25,-23,-58,25,0,0,0,0,0
1565373802062.5,-24,-58,24,0,0,0,0,0
1565373802093.75,-24,-58,23,0,0,0,0,0
1565373802125,-25,-59,22,0,0,0,0,0
1565373802156.25,-25,-58,22,0,0,0,0,0
1565373802187.5,-25,-57,22,0,0,0,0,0
1565373802218.75,-25,-55,21,0,0,0,0,0
1565373802250,-25,-53,20,0,0,0,0,0
1565373802281.25,-26,-53,20,0,0,0,0,0
1565373802312.5,-25,-55,20,0,0,0,0,0
1565373802343.75,-24,-54,20,0,0,0,0,0
1565373802375,-25,-55,20,0,0,0,0,0
1565373802406.25,-24,-58,20,0,0,0,0,0
1565373802437.5,-21,-61,22,0,0,0,0,0
1565373802468.75,-19,-62,23,0,0,0,0,0
1565373802500,-18,-64,22,0,0,0,0,0
1565373802531.25,-20,-64,22,0,0,0,0,0
1565373802562.5,-21,-63,21,0,0,0,0,0
1565373802593.75,-22,-60,21,0,0,0,0,0
1565373802625,-21,-55,20,0,0,0,0,0
1565373802656.25,-21,-53,20,0,0,0,0,0
1565373802687.5,-20,-49,19,0,0,0,0,0
1565373802718.75,-21,-46,17,0,0,0,0,0
1565373802750,-22,-46,17,0,0,0,0,0
1565373802781.25,-24,-50,16,0,0,0,0,0
1565373802812.5,-26,-56,15,0,0,0,0,0
1565373802843.75,-29,-68,16,0,0,0,0,0
1565373802875,-27,-72,17,0,0,0,0,0
1565373802906.25,-28,-70,19,0,0,0,0,0
1565373802937.5,-36,-61,14,0,0,0,0,0
1565373802968.75,-41,-59,16,0,0,0,0,0
1565373803000,-27,-59,19,0,0,0,0,0
1565373803031.25,-18,-62,21,0,0,0,0,0
1565373803062.5,-6,-73,25,0,0,0,0,0
1565373803093.75,-3,-68,25,0,0,0,0,0
1565373803125,-12,-57,21,0,0,0,0,0
1565373803156.25,-28,-58,16,0,0,0,0,0
1565373803187.5,-33,-62,16,0,0,0,0,0
1565373803218.75,-32,-64,14,0,0,0,0,0
1565373803250,-25,-55,18,0,0,0,0,0
1565373803281.25,-22,-47,20,0,0,0,0,0
1565373803312.5,-19,-39,21,0,0,0,0,0
1565373803343.75,-20,-40,20,0,0,0,0,0
1565373803375,-21,-43,20,0,0,0,0,0
1565373803406.25,-18,-62,20,0,0,0,0,0
1565373803437.5,-15,-68,21,0,0,0,0,0
1565373803468.75,-7,-70,24,0,0,0,0,0
1565373803500,-11,-66,22,0,0,0,0,0
1565373803531.25,-16,-62,19,0,0,0,0,0
1565373803562.5,-28,-55,14,0,0,0,0,0
1565373803593.75,-31,-57,9,0,0,0,0,0
1565373803625,-28,-61,9,0,0,0,0,0
1565373803656.25,-15,-66,13,0,0,0,0,0
1565373803687.5,-11,-75,18,0,0,0,0,0
1565373803718.75,-12,-79,19,0,0,0,0,0
1565373803750,3,-73,27,0,0,0,0,0
1565373803781.25,0,-73,38,0,0,0,0,0
1565373803812.5,-10,-73,37,0,0,0,0,0
1565373803843.75,-41,-65,9,0,0,0,0,0
1565373803875,-67,-54,-3,0,0,0,0,0
1565373803906.25,-63,-47,2,0,0,0,0,0
1565373803937.5,-44,-36,15,0,0,0,0,0
1565373803968.75,-44,-34,7,0,0,0,0,0
1565373804000,-48,-36,3,0,0,0,0,0
1565373804031.25,-47,-46,14,0,0,0,0,0
1565373804062.5,-42,-55,45,0,0,0,0,0
1565373804093.75,14,-79,29,0,0,0,0,0
1565373804125,5,-63,-35,0,0,0,0,0
1565373804156.25,-51,-30,-52,0,0,0,0,0
1565373804187.5,-128,-25,-20,0,0,0,0,0
1565373804218.75,-57,-51,-30,0,0,0,0,0
1565373804250,-28,-75,-28,0,0,0,0,0
1565373804281.25,-62,-37,-50,0,0,0,0,0
1565373804312.5,-52,-14,-65,0,0,0,0,0
1565373804343.75,-45,-21,-59,0,0,0,0,0
1565373804375,-51,-32,-41,0,0,0,0,0
1565373804406.25,-55,-24,-43,0,0,0,0,0
1565373804437.5,-52,-27,-34,0,0,0,0,0
1565373804468.75,-53,-23,-18,0,0,0,0,0
1565373804500,-50,-19,-11,0,0,0,0,0
1565373804531.25,-50,-16,-8,0,0,0,0,0
1565373804562.5,-47,-9,-8,0,0,0,0,0
1565373804593.75,-47,-7,-12,0,0,0,0,0
1565373804625,-44,-4,-9,0,0,0,0,0
1565373804656.25,-49,-4,-8,0,0,0,0,0
1565373804687.5,-51,-3,-10,0,0,0,0,0
1565373804718.75,-61,-2,-13,0,0,0,0,0
1565373804750,-61,0,-8,0,0,0,0,0
1565373804781.25,-52,0,-2,0,0,0,0,0
1565373804812.5,-65,0,-3,0,0,0,0,0
1565373804843.75,-68,-1,0,0,0,0,0,0
1565373804875,-61,-2,3,0,0,0,0,0
1565373804906.25,-44,-3,15,0,0,0,0,0
1565373804937.5,-53,-4,12,0,0,0,0,0
1565373804968.75,-64,-4,7,0,0,0,0,0
1565373805000,-61,-4,8,0,0,0,0,0
1565373805031.25,-65,1,-4,0,0,0,0,0
1565373805062.5,-73,0,-11,0,0,0,0,0
1565373805093.75,-71,-3,-15,0,0,0,0,0
1565373805125,-59,-9,0,0,0,0,0,0
1565373805156.25,-66,-3,-5,0,0,0,0,0
1565373805187.5,-64,-3,-13,0,0,0,0,0
1565373805218.75,-65,-3,-15,0,0,0,0,0
1565373805250,-65,-2,-16,0,0,0,0,0
1565373805281.25,-66,-3,-9,0,0,0,0,0
1565373805312.5,-67,-1,-15,0,0,0,0,0
1565373805343.75,-65,-1,-16,0,0,0,0,0
1565373805375,-62,-1,-11,0,0,0,0,0
1565373805406.25,-63,0,-11,0,0,0,0,0
1565373805437.5,-61,1,-18,0,0,0,0,0
1565373805468.75,-57,-2,-21,0,0,0,0,0
1565373805500,-59,-2,-21,0,0,0,0,0
1565373805531.25,-59,-1,-21,0,0,0,0,0
1565373805562.5,-59,-2,-19,0,0,0,0,0
1565373805593.75,-59,-1,-21,0,0,0,0,0
1565373805625,-56,-2,-21,0,0,0,0,0
1565373805656.25,-46,-2,-20,0,0,0,0,0
1565373805687.5,-34,-4,-21,0,0,0,0,0
1565373805718.75,-36,-11,-19,0,0,0,0,0
1565373805750,-43,-16,-25,0,0,0,0,0
1565373805781.25,-32,-17,-25,0,0,0,0,0
1565373805812.5,-26,-20,-15,0,0,0,0,0
1565373805843.75,-45,-31,5,0,0,0,0,0
1565373805875,-51,-31,14,0,0,0,0,0
1565373805906.25,-51,-41,23,0,0,0,0,0
1565373805937.5,-46,-65,42,0,0,0,0,0
1565373805968.75,-44,-74,51,0,0,0,0,0
1565373806000,-22,-83,65,0,0,0,0,0
1565373806031.25,-9,-81,71,0,0,0,0,0
1565373806062.5,-8,-75,71,0,0,0,0,0
1565373806093.75,-25,-68,62,0,0,0,0,0
1565373806125,-29,-65,55,0,0,0,0,0
1565373806156.25,-20,-58,63,0,0,0,0,0
1565373806187.5,-36,-55,57,0,0,0,0,0
1565373806218.75,-33,-51,42,0,0,0,0,0
1565373806250,-32,-58,24,0,0,0,0,0
1565373806281.25,-27,-76,18,0,0,0,0,0
1565373806312.5,-18,-84,14,0,0,0,0,0
1565373806343.75,-5,-76,9,0,0,0,0,0
1565373806375,-16,-61,10,0,0,0,0,0
1565373806406.25,-24,-58,7,0,0,0,0,0
1565373806437.5,-36,-55,-2,0,0,0,0,0
1565373806468.75,-31,-48,1,0,0,0,0,0
1565373806500,-26,-44,5,0,0,0,0,0
1565373806531.25,-29,-36,23,0,0,0,0,0
1565373806562.5,-47,-44,31,0,0,0,0,0
1565373806593.75,-48,-51,25,0,0,0,0,0
1565373806625,-53,-73,20,0,0,0,0,0
1565373806656.25,-65,-90,27,0,0,0,0,0
1565373806687.5,-71,-118,23,0,0,0,0,0
1565373806718.75,-93,-128,-22,0,0,0,0,0
1565373806750,-36,-128,-31,0,0,0,0,0
1565373806781.25,57,-128,15,0,0,0,0,0
1565373806812.5,58,-45,38,0,0,0,0,0
1565373806843.75,41,-28,46,0,0,0,0,0
1565373806875,-34,-22,45,0,0,0,0,0
1565373806906.25,-40,-23,40,0,0,0,0,0
1565373806937.5,-1,-14,46,0,0,0,0,0
1565373806968.75,7,-15,58,0,0,0,0,0
1565373807000,-52,11,-32,0,0,0,0,0
1565373807031.25,-84,61,-68,0,0,0,0,0
1565373807062.5,-99,73,-54,0,0,0,0,0
1565373807093.75,-27,29,47,0,0,0,0,0
1565373807125,38,24,83,0,0,0,0,0
1565373807156.25,-14,17,89,0,0,0,0,0
1565373807187.5,-13,3,87,0,0,0,0,0
1565373807218.75,9,3,92,0,0,0,0,0
1565373807250,11,6,93,0,0,0,0,0
1565373807281.25,5,15,76,0,0,0,0,0
1565373807312.5,-7,13,63,0,0,0,0,0
1565373807343.75,-34,-4,3,0,0,0,0,0
1565373807375,-12,-13,-6,0,0,0,0,0
1565373807406.25,50,-23,40,0,0,0,0,0
1565373807437.5,63,-72,94,0,0,0,0,0
1565373807468.75,-12,-78,65,0,0,0,0,0
1565373807500,-88,-11,34,0,0,0,0,0
1565373807531.25,-58,-4,75,0,0,0,0,0
1565373807562.5,-67,7,57,0,0,0,0,0
1565373807593.75,-64,6,64,0,0,0,0,0
1565373807625,-41,2,79,0,0,0,0,0
1565373807656.25,-43,4,76,0,0,0,0,0
1565373807687.5,-50,9,61,0,0,0,0,0
1565373807718.75,-38,10,54,0,0,0,0,0
1565373807750,-34,9,51,0,0,0,0,0
1565373807781.25,-26,8,48,0,0,0,0,0
1565373807812.5,-17,7,43,0,0,0,0,0
1565373807843.75,-16,7,40,0,0,0,0,0
1565373807875,-19,9,32,0,0,0,0,0
1565373807906.25,-12,5,34,0,0,0,0,0
1565373807937.5,-13,5,34,0,0,0,0,0
1565373807968.75,-28,3,27,0,0,0,0,0
1565373808000,-36,7,23,0,0,0,0,0
1565373808031.25,-40,8,22,0,0,0,0,0
1565373808062.5,-39,-11,26,0,0,0,0,0
1565373808093.75,-29,-25,27,0,0,0,0,0
1565373808125,-11,-53,23,0,0,0,0,0
1565373808156.25,7,-80,31,0,0,0,0,0
1565373808187.5,16,-88,36,0,0,0,0,0
1565373808218.75,30,-92,45,0,0,0,0,0
1565373808250,17,-91,41,0,0,0,0,0
1565373808281.25,5,-96,36,0,0,0,0,0
1565373808312.5,-12,-103,33,0,0,0,0,0
1565373808343.75,-12,-92,38,0,0,0,0,0
1565373808375,23,-94,81,0,0,0,0,0
1565373808406.25,-61,-112,-107,0,0,0,0,0
1565373808437.5,-128,-67,0,0,0,0,0,0
1565373808468.75,-118,-45,9,0,0,0,0,0
1565373808500,-24,-49,16,0,0,0,0,0
1565373808531.25,33,-66,63,0,0,0,0,0
1565373808562.5,15,-68,54,0,0,0,0,0
1565373808593.75,16,-62,39,0,0,0,0,0
1565373808625,-14,-52,23,0,0,0,0,0
1565373808656.25,-28,-50,20,0,0,0,0,0
1565373808687.5,-36,-52,20,0,0,0,0,0
1565373808718.75,-34,-58,20,0,0,0,0,0
1565373808750,-31,-76,30,0,0,0,0,0
1565373808781.25,-18,-71,23,0,0,0,0,0
1565373808812.5,-12,-69,22,0,0,0,0,0
1565373808843.75,-4,-63,20,0,0,0,0,0
1565373808875,2,-56,21,0,0,0,0,0
1565373808906.25,3,-54,20,0,0,0,0,0
1565373808937.5,-2,-55,17,0,0,0,0,0
1565373808968.75,-10,-57,19,0,0,0,0,0
1565373809000,-12,-56,19,0,0,0,0,0
1565373809031.25,-11,-53,18,0,0,0,0,0
1565373809062.5,-8,-48,20,0,0,0,0,0
1565373809093.75,-9,-48,22,0,0,0,0,0
1565373809125,-12,-54,23,0,0,0,0,0
1565373809156.25,-14,-58,21,0,0,0,0,0
1565373809187.5,-16,-59,22,0,0,0,0,0
1565373809218.75,-19,-59,24,0,0,0,0,0
1565373809250,-19,-58,24,0,0,0,0,0
1565373809281.25,-21,-59,24,0,0,0,0,0
1565373809312.5,-24,-61,23,0,0,0,0,0
1565373809343.75,-26,-59,19,0,0,0,0,0
1565373809375,-28,-59,17,0,0,0,0,0
1565373809406.25,-34,-67,17,0,0,0,0,0
1565373809437.5,-37,-70,16,0,0,0,0,0
1565373809468.75,-39,-74,13,0,0,0,0,0
1565373809500,-39,-73,8,0,0,0,0,0
1565373809531.25,-39,-66,6,0,0,0,0,0
1565373809562.5,-41,-55,2,0,0,0,0,0
1565373809593.75,-55,-50,-8,0,0,0,0,0
1565373809625,-59,-54,-7,0,0,0,0,0
1565373809656.25,-50,-61,-3,0,0,0,0,0
1565373809687.5,-44,-67,3,0,0,0,0,0
1565373809718.75,-45,-70,6,0,0,0,0,0
1565373809750,-38,-71,7,0,0,0,0,0
1565373809781.25,-34,-73,11,0,0,0,0,0
1565373809812.5,-36,-76,13,0,0,0,0,0
1565373809843.75,-36,-76,12,0,0,0,0,0
1565373809875,-32,-63,12,0,0,0,0,0
1565373809906.25,-44,-64,14,0,0,0,0,0
1565373809937.5,-53,-75,11,0,0,0,0,0
1565373809968.75,-42,-77,6,0,0,0,0,0
1565373810000,-55,-65,9,0,0,0,0,0
1565373810031.25,-65,-58,8,0,0,0,0,0
1565373810062.5,-58,-54,5,0,0,0,0,0
1565373810093.75,-69,-56,-4,0,0,0,0,0
1565373810125,-74,-76,16,0,0,0,0,0
1565373810156.25,-63,-70,39,0,0,0,0,0
1565373810187.5,-51,-38,43,0,0,0,0,0
1565373810218.75,-9,-20,37,0,0,0,0,0
1565373810250,-1,-6,30,0,0,0,0,0
1565373810281.25,4,17,17,0,0,0,0,0
1565373810312.5,-4,29,6,0,0,0,0,0
1565373810343.75,-12,33,7,0,0,0,0,0
1565373810375,-30,38,10,0,0,0,0,0
1565373810406.25,-39,35,7,0,0,0,0,0
1565373810437.5,-40,33,10,0,0,0,0,0
1565373810468.75,-22,21,23,0,0,0,0,0
1565373810500,2,46,11,0,0,0,0,0
1565373810531.25,-25,25,40,0,0,0,0,0
1565373810562.5,-125,-16,120,0,0,0,0,0
1565373810593.75,-116,22,123,0,0,0,0,0
1565373810625,-18,56,45,0,0,0,0,0
1565373810656.25,-51,9,46,0,0,0,0,0
1565373810687.5,-39,4,47,0,0,0,0,0
1565373810718.75,-36,-2,44,0,0,0,0,0
1565373810750,-49,23,48,0,0,0,0,0
1565373810781.25,-49,33,41,0,0,0,0,0
1565373810812.5,-35,39,67,0,0,0,0,0
1565373810843.75,-41,32,82,0,0,0,0,0
1565373810875,-38,20,72,0,0,0,0,0
1565373810906.25,-33,17,37,0,0,0,0,0
1565373810937.5,-25,26,55,0,0,0,0,0
1565373810968.75,-37,39,56,0,0,0,0,0
1565373811000,-12,43,53,0,0,0,0,0
1565373811031.25,-51,15,52,0,0,0,0,0
1565373811062.5,-48,14,59,0,0,0,0,0
1565373811093.75,-41,26,51,0,0,0,0,0
1565373811125,-23,22,55,0,0,0,0,0
1565373811156.25,-18,21,61,0,0,0,0,0
1565373811187.5,-26,4,74,0,0,0,0,0
1565373811218.75,-26,-7,58,0,0,0,0,0
1565373811250,-19,-7,60,0,0,0,0,0
1565373811281.25,-12,4,50,0,0,0,0,0
1565373811312.5,-9,8,41,0,0,0,0,0
1565373811343.75,-7,15,38,0,0,0,0,0
1565373811375,-3,22,44,0,0,0,0,0
1565373811406.25,-1,24,45,0,0,0,0,0
1565373811437.5,-14,19,46,0,0,0,0,0
1565373811468.75,-31,13,56,0,0,0,0,0
1565373811500,-31,13,56,0,0,0,0,0
1565373811531.25,-32,12,55,0,0,0,0,0
1565373811562.5,-33,14,51,0,0,0,0,0
1565373811593.75,-31,15,47,0,0,0,0,0
1565373811625,-31,20,41,0,0,0,0,0
1565373811656.25,-49,21,37,0,0,0,0,0
1565373811687.5,-59,19,41,0,0,0,0,0
1565373811718.75,-56,10,47,0,0,0,0,0
1565373811750,-71,5,47,0,0,0,0,0
1565373811781.25,-78,6,41,0,0,0,0,0
1565373811812.5,-73,14,35,0,0,0,0,0
1565373811843.75,-55,17,34,0,0,0,0,0
1565373811875,-54,14,32,0,0,0,0,0
1565373811906.25,-61,3,34,0,0,0,0,0
1565373811937.5,-63,-4,32,0,0,0,0,0
1565373811968.75,-70,-18,35,0,0,0,0,0
1565373812000,-61,-22,40,0,0,0,0,0
1565373812031.25,-60,-22,38,0,0,0,0,0
1565373812062.5,-66,-20,29,0,0,0,0,0
1565373812093.75,-61,-21,24,0,0,0,0,0
1565373812125,-56,-20,25,0,0,0,0,0
1565373812156.25,-52,-20,28,0,0,0,0,0
1565373812187.5,-52,-20,27,0,0,0,0,0
1565373812218.75,-52,-20,27,0,0,0,0,0
1565373812250,-51,-17,25,0,0,0,0,0
1565373812281.25,-57,-17,24,0,0,0,0,0
1565373812312.5,-58,-18,24,0,0,0,0,0
1565373812343.75,-53,-7,31,0,0,0,0,0
1565373812375,-69,-8,18,0,0,0,0,0
1565373812406.25,-75,-10,14,0,0,0,0,0
1565373812437.5,-70,-15,18,0,0,0,0,0
1565373812468.75,-61,-23,19,0,0,0,0,0
1565373812500,-54,-24,23,0,0,0,0,0
1565373812531.25,-46,-22,25,0,0,0,0,0
1565373812562.5,-45,-22,24,0,0,0,0,0
1565373812593.75,-49,-23,21,0,0,0,0,0
1565373812625,-53,-27,21,0,0,0,0,0
1565373812656.25,-52,-29,23,0,0,0,0,0
1565373812687.5,-45,-32,29,0,0,0,0,0
1565373812718.75,-47,-33,31,0,0,0,0,0
1565373812750,-49,-32,29,0,0,0,0,0
1565373812781.25,-55,-30,26,0,0,0,0,0
1565373812812.5,-57,-32,25,0,0,0,0,0
1565373812843.75,-57,-33,23,0,0,0,0,0
1565373812875,-56,-34,20,0,0,0,0,0
1565373812906.25,-52,-33,21,0,0,0,0,0
1565373812937.5,-51,-31,21,0,0,0,0,0
1565373812968.75,-49,-29,20,0,0,0,0,0
1565373813000,-54,-27,16,0,0,0,0,0
1565373813031.25,-54,-26,15,0,0,0,0,0
1565373813062.5,-55,-25,13,0,0,0,0,0
1565373813093.75,-57,-26,14,0,0,0,0,0
1565373813125,-59,-26,16,0,0,0,0,0
1565373813156.25,-58,-24,18,0,0,0,0,0
1565373813187.5,-58,-25,18,0,0,0,0,0
1565373813218.75,-58,-25,24,0,0,0,0,0
1565373813250,-65,-33,24,0,0,0,0,0
1565373813281.25,-63,-34,19,0,0,0,0,0
1565373813312.5,-59,-32,17,0,0,0,0,0
1565373813343.75,-50,-29,16,0,0,0,0,0
1565373813375,-50,-30,17,0,0,0,0,0
1565373813406.25,-51,-32,18,0,0,0,0,0
1565373813437.5,-52,-33,19,0,0,0,0,0
1565373813468.75,-53,-32,18,0,0,0,0,0
1565373813500,-55,-29,16,0,0,0,0,0
1565373813531.25,-60,-27,14,0,0,0,0,0
1565373813562.5,-62,-27,12,0,0,0,0,0
1565373813593.75,-64,-28,10,0,0,0,0,0
1565373813625,-59,-29,11,0,0,0,0,0
1565373813656.25,-56,-29,13,0,0,0,0,0
1565373813687.5,-52,-30,16,0,0,0,0,0
1565373813718.75,-52,-31,17,0,0,0,0,0
1565373813750,-55,-32,16,0,0,0,0,0
1565373813781.25,-57,-32,16,0,0,0,0,0
1565373813812.5,-56,-31,16,0,0,0,0,0
1565373813843.75,-56,-30,17,0,0,0,0,0
1565373813875,-57,-31,16,0,0,0,0,0
1565373813906.25,-56,-30,16,0,0,0,0,0
1565373813937.5,-55,-31,17,0,0,0,0,0
1565373813968.75,-54,-31,16,0,0,0,0,0
1565373814000,-54,-33,16,0,0,0,0,0
1565373814031.25,-54,-34,16,0,0,0,0,0
1565373814062.5,-53,-36,15,0,0,0,0,0
1565373814093.75,-52,-37,16,0,0,0,0,0
1565373814125,-49,-36,17,0,0,0,0,0
1565373814156.25,-50,-37,16,0,0,0,0,0
1565373814187.5,-48,-35,17,0,0,0,0,0
1565373814218.75,-47,-33,17,0,0,0,0,0
1565373814250,-48,-31,14,0,0,0,0,0
1565373814281.25,-51,-32,13,0,0,0,0,0
1565373814312.5,-59,-38,11,0,0,0,0,0
1565373814343.75,-61,-49,8,0,0,0,0,0
1565373814375,-58,-53,8,0,0,0,0,0
1565373814406.25,-48,-58,13,0,0,0,0,0
1565373814437.5,-35,-57,18,0,0,0,0,0
1565373814468.75,-32,-55,18,0,0,0,0,0
1565373814500,-34,-51,12,0,0,0,0,0
1565373814531.25,-39,-49,5,0,0,0,0,0
1565373814562.5,-41,-48,3,0,0,0,0,0
1565373814593.75,-44,-44,3,0,0,0,0,0
1565373814625,-43,-42,5,0,0,0,0,0
1565373814656.25,-41,-41,6,0,0,0,0,0
1565373814687.5,-44,-43,-1,0,0,0,0,0
1565373814718.75,-42,-48,3,0,0,0,0,0
1565373814750,-64,-59,19,0,0,0,0,0
1565373814781.25,-66,-58,19,0,0,0,0,0
1565373814812.5,-59,-54,27,0,0,0,0,0
1565373814843.75,-40,-39,46,0,0,0,0,0
1565373814875,-13,-61,93,0,0,0,0,0
1565373814906.25,-39,-53,102,0,0,0,0,0
1565373814937.5,-17,-42,33,0,0,0,0,0
1565373814968.75,-33,-58,30,0,0,0,0,0
1565373815000,-26,-59,32,0,0,0,0,0
1565373815031.25,-11,-57,26,0,0,0,0,0
1565373815062.5,-3,-46,24,0,0,0,0,0
1565373815093.75,-7,-43,19,0,0,0,0,0
1565373815125,-17,-43,13,0,0,0,0,0
1565373815156.25,-22,-44,11,0,0,0,0,0
1565373815187.5,-29,-50,12,0,0,0,0,0
1565373815218.75,-28,-51,18,0,0,0,0,0
1565373815250,-25,-48,21,0,0,0,0,0
1565373815281.25,-25,-42,26,0,0,0,0,0
1565373815312.5,-33,-51,27,0,0,0,0,0
1565373815343.75,-34,-60,29,0,0,0,0,0
1565373815375,-19,-67,34,0,0,0,0,0
1565373815406.25,-1,-58,38,0,0,0,0,0
1565373815437.5,-1,-54,37,0,0,0,0,0
1565373815468.75,-13,-49,30,0,0,0,0,0
1565373815500,-26,-49,26,0,0,0,0,0
1565373815531.25,-31,-50,26,0,0,0,0,0
1565373815562.5,-31,-51,30,0,0,0,0,0
1565373815593.75,-34,-56,39,0,0,0,0,0
1565373815625,-37,-56,41,0,0,0,0,0
1565373815656.25,-37,-54,39,0,0,0,0,0
1565373815687.5,-16,-44,40,0,0,0,0,0
1565373815718.75,-4,-39,48,0,0,0,0,0
1565373815750,-32,-39,35,0,0,0,0,0
1565373815781.25,-39,-52,31,0,0,0,0,0
1565373815812.5,-46,-66,32,0,0,0,0,0
1565373815843.75,-31,-70,36,0,0,0,0,0
1565373815875,-20,-66,35,0,0,0,0,0
1565373815906.25,-16,-54,32,0,0,0,0,0
1565373815937.5,-34,-56,22,0,0,0,0,0
1565373815968.75,-41,-63,17,0,0,0,0,0
1565373816000,-34,-56,14,0,0,0,0,0
1565373816031.25,-19,-38,18,0,0,0,0,0
1565373816062.5,-21,-30,15,0,0,0,0,0
1565373816093.75,-40,-26,4,0,0,0,0,0
1565373816125,-64,-38,-5,0,0,0,0,0
1565373816156.25,-63,-53,-1,0,0,0,0,0
1565373816187.5,-39,-69,15,0,0,0,0,0
1565373816218.75,-23,-62,28,0,0,0,0,0
1565373816250,-24,-58,28,0,0,0,0,0
1565373816281.25,-34,-55,24,0,0,0,0,0
1565373816312.5,-36,-57,23,0,0,0,0,0
1565373816343.75,-28,-54,25,0,0,0,0,0
1565373816375,-15,-46,29,0,0,0,0,0
1565373816406.25,-21,-45,30,0,0,0,0,0
1565373816437.5,-29,-47,28,0,0,0,0,0
1565373816468.75,-39,-56,25,0,0,0,0,0
1565373816500,-39,-59,25,0,0,0,0,0
1565373816531.25,-34,-63,29,0,0,0,0,0
1565373816562.5,-29,-63,31,0,0,0,0,0
1565373816593.75,-28,-58,30,0,0,0,0,0
1565373816625,-31,-48,25,0,0,0,0,0
1565373816656.25,-37,-47,23,0,0,0,0,0
1565373816687.5,-38,-49,23,0,0,0,0,0
1565373816718.75,-34,-57,25,0,0,0,0,0
1565373816750,-31,-58,30,0,0,0,0,0
1565373816781.25,-29,-52,32,0,0,0,0,0
1565373816812.5,-27,-39,30,0,0,0,0,0
1565373816843.75,-20,-35,39,0,0,0,0,0
1565373816875,-25,-39,37,0,0,0,0,0
1565373816906.25,-48,-53,22,0,0,0,0,0
1565373816937.5,-44,-58,20,0,0,0,0,0
1565373816968.75,-31,-53,28,0,0,0,0,0
1565373817000,-29,-44,33,0,0,0,0,0
1565373817031.25,-37,-46,25,0,0,0,0,0
1565373817062.5,-36,-48,24,0,0,0,0,0
1565373817093.75,-29,-55,27,0,0,0,0,0
1565373817125,-22,-62,30,0,0,0,0,0
1565373817156.25,-18,-63,31,0,0,0,0,0
1565373817187.5,-16,-63,31,0,0,0,0,0
1565373817218.75,-18,-63,30,0,0,0,0,0
1565373817250,-22,-61,27,0,0,0,0,0
1565373817281.25,-23,-60,25,0,0,0,0,0
1565373817312.5,-23,-60,25,0,0,0,0,0
1565373817343.75,-19,-56,25,0,0,0,0,0
1565373817375,-14,-49,24,0,0,0,0,0
1565373817406.25,-14,-47,24,0,0,0,0,0
1565373817437.5,-16,-46,22,0,0,0,0,0
1565373817468.75,-20,-48,20,0,0,0,0,0
1565373817500,-23,-51,20,0,0,0,0,0
1565373817531.25,-31,-56,21,0,0,0,0,0
1565373817562.5,-39,-61,23,0,0,0,0,0
1565373817593.75,-38,-60,24,0,0,0,0,0
1565373817625,-34,-56,26,0,0,0,0,0
1565373817656.25,-39,-54,27,0,0,0,0,0
1565373817687.5,-40,-54,28,0,0,0,0,0
1565373817718.75,-34,-56,35,0,0,0,0,0
1565373817750,-29,-57,40,0,0,0,0,0
1565373817781.25,-18,-50,45,0,0,0,0,0
1565373817812.5,-21,-45,43,0,0,0,0,0
1565373817843.75,-27,-45,41,0,0,0,0,0
1565373817875,-34,-46,39,0,0,0,0,0
1565373817906.25,-26,-46,37,0,0,0,0,0
1565373817937.5,-23,-47,37,0,0,0,0,0
1565373817968.75,-20,-50,37,0,0,0,0,0
1565373818000,-20,-52,34,0,0,0,0,0
1565373818031.25,-21,-51,33,0,0,0,0,0
1565373818062.5,-18,-48,30,0,0,0,0,0
1565373818093.75,-16,-45,29,0,0,0,0,0
1565373818125,-17,-44,29,0,0,0,0,0
1565373818156.25,-19,-45,29,0,0,0,0,0
1565373818187.5,-19,-43,30,0,0,0,0,0
1565373818218.75,-19,-42,31,0,0,0,0,0
1565373818250,-19,-41,36,0,0,0,0,0
1565373818281.25,-19,-43,39,0,0,0,0,0
1565373818312.5,-18,-45,40,0,0,0,0,0
1565373818343.75,-16,-45,42,0,0,0,0,0
1565373818375,-17,-45,43,0,0,0,0,0
1565373818406.25,-19,-46,43,0,0,0,0,0
1565373818437.5,-23,-54,43,0,0,0,0,0
1565373818468.75,-23,-74,46,0,0,0,0,0
1565373818500,-19,-79,45,0,0,0,0,0
1565373818531.25,-8,-72,40,0,0,0,0,0
1565373818562.5,-8,-67,38,0,0,0,0,0
1565373818593.75,-17,-59,38,0,0,0,0,0
1565373818625,-29,-52,30,0,0,0,0,0
1565373818656.25,-30,-50,27,0,0,0,0,0
1565373818687.5,-23,-50,26,0,0,0,0,0
1565373818718.75,-13,-53,27,0,0,0,0,0
1565373818750,-10,-54,26,0,0,0,0,0
1565373818781.25,-9,-54,24,0,0,0,0,0
1565373818812.5,-14,-51,22,0,0,0,0,0
1565373818843.75,-18,-51,21,0,0,0,0,0
1565373818875,-24,-49,21,0,0,0,0,0
1565373818906.25,-26,-52,20,0,0,0,0,0
1565373818937.5,-24,-55,21,0,0,0,0,0
1565373818968.75,-22,-59,25,0,0,0,0,0
1565373819000,-19,-61,27,0,0,0,0,0
1565373819031.25,-17,-60,27,0,0,0,0,0
1565373819062.5,-13,-55,28,0,0,0,0,0
1565373819093.75,-15,-53,28,0,0,0,0,0
1565373819125,-22,-52,28,0,0,0,0,0
1565373819156.25,-26,-51,26,0,0,0,0,0
1565373819187.5,-26,-50,27,0,0,0,0,0
1565373819218.75,-27,-49,27,0,0,0,0,0
1565373819250,-37,-44,21,0,0,0,0,0
1565373819281.25,-51,-41,20,0,0,0,0,0
1565373819312.5,-75,-51,15,0,0,0,0,0
1565373819343.75,-28,-74,44,0,0,0,0,0
1565373819375,-11,-83,67,0,0,0,0,0
1565373819406.25,15,-62,49,0,0,0,0,0
1565373819437.5,37,-74,56,0,0,0,0,0
1565373819468.75,17,-70,37,0,0,0,0,0
1565373819500,-46,-53,-1,0,0,0,0,0
1565373819531.25,-50,-43,3,0,0,0,0,0
1565373819562.5,-37,-41,9,0,0,0,0,0
1565373819593.75,-7,-41,19,0,0,0,0,0
1565373819625,4,-52,23,0,0,0,0,0
1565373819656.25,1,-59,24,0,0,0,0,0
1565373819687.5,-10,-62,27,0,0,0,0,0
1565373819718.75,-19,-56,27,0,0,0,0,0
1565373819750,-21,-54,26,0,0,0,0,0
1565373819781.25,-18,-53,27,0,0,0,0,0
1565373819812.5,-14,-52,29,0,0,0,0,0
1565373819843.75,-9,-52,32,0,0,0,0,0
1565373819875,-10,-51,33,0,0,0,0,0
1565373819906.25,-13,-48,31,0,0,0,0,0
1565373819937.5,-23,-42,29,0,0,0,0,0
1565373819968.75,-30,-43,29,0,0,0,0,0
1565373820000,-24,-51,32,0,0,0,0,0
1565373820031.25,-17,-58,34,0,0,0,0,0
1565373820062.5,-3,-67,39,0,0,0,0,0
1565373820093.75,-2,-69,41,0,0,0,0,0
1565373820125,-20,-82,42,0,0,0,0,0
1565373820156.25,-28,-70,33,0,0,0,0,0
1565373820187.5,-30,-70,32,0,0,0,0,0
1565373820218.75,-29,-80,33,0,0,0,0,0
1565373820250,-12,-87,32,0,0,0,0,0
1565373820281.25,-6,-85,32,0,0,0,0,0
1565373820312.5,-4,-66,29,0,0,0,0,0
1565373820343.75,-6,-54,23,0,0,0,0,0
1565373820375,-8,-50,20,0,0,0,0,0
1565373820406.25,-10,-43,17,0,0,0,0,0
1565373820437.5,-11,-40,17,0,0,0,0,0
1565373820468.75,-11,-39,16,0,0,0,0,0
1565373820500,-11,-41,18,0,0,0,0,0
1565373820531.25,-12,-42,19,0,0,0,0,0
1565373820562.5,-16,-43,22,0,0,0,0,0
1565373820593.75,-20,-47,24,0,0,0,0,0
1565373820625,-20,-50,26,0,0,0,0,0
1565373820656.25,-12,-62,25,0,0,0,0,0
1565373820687.5,-4,-69,29,0,0,0,0,0
1565373820718.75,-5,-64,31,0,0,0,0,0
1565373820750,-25,-74,35,0,0,0,0,0
1565373820781.25,-44,-81,28,0,0,0,0,0
1565373820812.5,-29,-72,23,0,0,0,0,0
1565373820843.75,-9,-47,27,0,0,0,0,0
1565373820875,-13,-33,31,0,0,0,0,0
1565373820906.25,-18,-30,29,0,0,0,0,0
1565373820937.5,-27,-31,23,0,0,0,0,0
1565373820968.75,-31,-41,24,0,0,0,0,0
1565373821000,-29,-50,25,0,0,0,0,0
1565373821031.25,-24,-63,26,0,0,0,0,0
1565373821062.5,-17,-67,32,0,0,0,0,0
1565373821093.75,-14,-66,27,0,0,0,0,0
1565373821125,-18,-65,36,0,0,0,0,0
1565373821156.25,-23,-66,35,0,0,0,0,0
1565373821187.5,-27,-70,33,0,0,0,0,0
1565373821218.75,-24,-85,33,0,0,0,0,0
1565373821250,-22,-91,34,0,0,0,0,0
1565373821281.25,-21,-78,26,0,0,0,0,0
1565373821312.5,-29,-64,17,0,0,0,0,0
1565373821343.75,-37,-76,17,0,0,0,0,0
1565373821375,-23,-80,12,0,0,0,0,0
1565373821406.25,-4,-89,5,0,0,0,0,0
1565373821437.5,0,-93,3,0,0,0,0,0
1565373821468.75,-12,-74,-7,0,0,0,0,0
1565373821500,-27,-53,-21,0,0,0,0,0
1565373821531.25,-26,-52,-22,0,0,0,0,0
1565373821562.5,-15,-49,-19,0,0,0,0,0
1565373821593.75,-9,-46,-15,0,0,0,0,0
1565373821625,-10,-46,-10,0,0,0,0,0
1565373821656.25,-12,-55,-1,0,0,0,0,0
1565373821687.5,-10,-64,-1,0,0,0,0,0
1565373821718.75,-7,-71,7,0,0,0,0,0
1565373821750,-7,-74,18,0,0,0,0,0
1565373821781.25,-12,-75,19,0,0,0,0,0
1565373821812.5,-15,-73,14,0,0,0,0,0
1565373821843.75,54,-89,57,0,0,0,0,0
1565373821875,81,-70,75,0,0,0,0,0
1565373821906.25,-8,-47,20,0,0,0,0,0
1565373821937.5,-32,-51,5,0,0,0,0,0
1565373821968.75,-39,-52,-3,0,0,0,0,0
1565373822000,-18,-57,-4,0,0,0,0,0
1565373822031.25,-8,-61,8,0,0,0,0,0
1565373822062.5,-5,-64,13,0,0,0,0,0
1565373822093.75,-12,-71,14,0,0,0,0,0
1565373822125,-19,-71,11,0,0,0,0,0
1565373822156.25,-19,-70,10,0,0,0,0,0
1565373822187.5,-18,-67,13,0,0,0,0,0
1565373822218.75,-17,-63,17,0,0,0,0,0
1565373822250,-17,-62,18,0,0,0,0,0
1565373822281.25,-19,-58,20,0,0,0,0,0
1565373822312.5,-14,-56,24,0,0,0,0,0
1565373822343.75,-11,-57,25,0,0,0,0,0
1565373822375,-24,-58,16,0,0,0,0,0
1565373822406.25,-28,-59,12,0,0,0,0,0
1565373822437.5,-24,-62,13,0,0,0,0,0
1565373822468.75,-21,-65,14,0,0,0,0,0
