Timestamp,ACC_X,ACC_Y,ACC_Z,Note,AGG,ED,SIB,Condition
1579894782000,0,0,0,0,0,0,0,0
1579894782031.25,0,0,0,0,0,0,0,0
1579894782062.5,0,0,0,0,0,0,0,0
1579894782093.75,0,0,0,0,0,0,0,0
1579894782125,0,0,0,0,0,0,0,0
1579894782156.25,0,0,0,0,0,0,0,0
1579894782187.5,0,0,0,0,0,0,0,0
1579894782218.75,0,0,0,0,0,0,0,0
1579894782250,0,0,0,0,0,0,0,0
1579894782281.25,0,0,0,1,0,0,0,0
1579894782312.5,0,0,0,1,0,0,0,0
1579894782343.75,0,0,0,1,0,0,0,0
1579894782375,0,0,0,1,0,0,0,0
1579894782406.25,0,0,0,1,0,0,0,0
1579894782437.5,0,0,0,1,0,0,0,0
1579894782468.75,0,0,0,1,0,0,0,0
1579894782500,0,0,0,1,0,0,0,0
1579894782531.25,0,0,0,1,0,0,0,0
1579894782562.5,0,0,0,1,0,0,0,0
1579894782593.75,0,0,0,1,0,0,0,0
1579894782625,0,0,0,1,0,0,0,0
1579894782656.25,0,0,0,0,0,0,0,0
1579894782687.5,0,0,0,0,0,0,0,0
1579894782718.75,0,0,0,0,0,0,0,0
1579894782750,0,0,0,0,0,0,0,0
1579894782781.25,0,0,0,0,0,0,0,0
1579894782812.5,0,0,0,0,0,0,0,0
1579894782843.75,0,0,0,0,0,0,0,0
1579894782875,0,0,0,0,0,0,0,0
1579894782906.25,0,0,0,0,0,0,0,0
1579894782937.5,0,0,0,0,0,0,0,0
1579894782968.75,0,0,0,0,0,0,0,0
1579894783000,0,0,0,0,0,0,0,0
1579894783031.25,0,0,0,0,0,0,0,0
1579894783062.5,0,0,0,0,0,0,0,0
1579894783093.75,0,0,0,0,0,0,0,0
1579894783125,0,0,0,0,0,0,0,0
1579894783156.25,0,0,0,0,0,0,0,0
1579894783187.5,0,0,0,0,0,0,0,0
1579894783218.75,0,0,0,0,0,0,0,0
1579894783250,0,0,0,0,0,0,0,0
1579894783281.25,0,0,0,0,0,0,0,0
1579894783312.5,0,0,0,0,0,0,0,0
1579894783343.75,0,0,0,0,0,0,0,0
1579894783375,0,0,0,0,0,0,0,0
1579894783406.25,0,0,0,0,0,0,0,0
1579894783437.5,0,0,0,0,0,0,0,0
1579894783468.75,0,0,0,0,0,0,0,0
1579894783500,0,0,0,0,0,0,0,0
1579894783531.25,0,0,0,0,0,0,0,0
1579894783562.5,0,0,0,0,0,0,0,0
1579894783593.75,0,0,0,0,0,0,0,0
1579894783625,0,0,0,0,0,0,0,0
1579894783656.25,0,0,0,0,0,0,0,0
1579894783687.5,0,0,0,0,0,0,0,0
1579894783718.75,0,0,0,0,0,0,0,0
1579894783750,0,0,0,0,0,0,0,0
1579894783781.25,0,0,0,0,0,0,0,0
1579894783812.5,0,0,0,0,0,0,0,0
1579894783843.75,0,0,0,0,0,0,0,0
1579894783875,0,0,0,0,0,0,0,0
1579894783906.25,0,0,0,0,0,0,0,0
1579894783937.5,0,0,0,0,0,0,0,0
1579894783968.75,0,0,0,0,0,0,0,0
1579894784000,0,0,0,0,0,0,0,0
1579894784031.25,0,0,0,0,0,0,0,0
1579894784062.5,0,0,0,0,0,0,0,0
1579894784093.75,0,0,0,0,0,0,0,0
1579894784125,0,0,0,0,0,0,0,0
1579894784156.25,0,0,0,0,0,0,0,0
1579894784187.5,0,0,0,0,0,0,0,0
1579894784218.75,0,0,0,0,0,0,0,0
1579894784250,0,0,0,0,0,0,0,0
1579894784281.25,0,0,0,0,0,0,0,0
1579894784312.5,0,0,0,0,0,0,0,0
1579894784343.75,0,0,0,0,0,0,0,0
1579894784375,0,0,0,0,0,0,0,0
1579894784406.25,0,0,0,0,0,0,0,0
1579894784437.5,0,0,0,0,0,0,0,0
1579894784468.75,0,0,0,0,0,0,0,0
1579894784500,0,0,0,0,0,0,0,0
1579894784531.25,0,0,0,0,0,0,0,0
1579894784562.5,0,0,0,0,0,0,0,0
1579894784593.75,0,0,0,0,0,0,0,0
1579894784625,0,0,0,0,0,0,0,0
1579894784656.25,0,0,0,0,0,0,0,0
1579894784687.5,0,0,0,0,0,0,0,0
1579894784718.75,0,0,0,0,0,0,0,0
1579894784750,0,0,0,0,0,0,0,0
1579894784781.25,0,0,0,0,0,0,0,0
1579894784812.5,0,0,0,0,0,0,0,0
1579894784843.75,0,0,0,0,0,0,0,0
1579894784875,0,0,0,0,0,0,0,0
1579894784906.25,0,0,0,0,0,0,0,0
1579894784937.5,0,0,0,0,0,0,0,0
1579894784968.75,0,0,0,0,0,0,0,0
1579894785000,0,0,0,0,0,0,0,0
1579894785031.25,0,0,0,0,0,0,0,0
1579894785062.5,0,0,0,0,0,0,0,0
1579894785093.75,0,0,0,0,0,0,0,0
1579894785125,0,0,0,0,0,0,0,0
1579894785156.25,0,0,0,0,0,0,0,0
1579894785187.5,0,0,0,0,0,0,0,0
1579894785218.75,0,0,0,0,0,0,0,0
1579894785250,0,0,0,0,0,0,0,0
1579894785281.25,0,0,0,0,0,0,0,0
1579894785312.5,0,0,0,0,0,0,0,0
1579894785343.75,0,0,0,0,0,0,0,0
1579894785375,0,0,0,0,0,0,0,0
1579894785406.25,0,0,0,0,0,0,0,0
1579894785437.5,0,0,0,0,0,0,0,0
1579894785468.75,0,0,0,0,0,0,0,0
1579894785500,0,0,0,0,0,0,0,0
1579894785531.25,0,0,0,0,0,0,0,0
1579894785562.5,0,0,0,0,0,0,0,0
1579894785593.75,0,0,0,0,0,0,0,0
1579894785625,0,0,0,0,0,0,0,0
1579894785656.25,0,0,0,0,0,0,0,0
1579894785687.5,0,0,0,0,0,0,0,0
1579894785718.75,0,0,0,0,0,0,0,0
1579894785750,0,0,0,0,0,0,0,0
1579894785781.25,0,0,0,0,0,0,0,0
1579894785812.5,0,0,0,0,0,0,0,0
1579894785843.75,0,0,0,0,0,0,0,0
1579894785875,0,0,0,0,0,0,0,0
1579894785906.25,0,0,0,0,0,0,0,0
1579894785937.5,0,0,0,0,0,0,0,0
1579894785968.75,0,0,0,0,0,0,0,0
1579894786000,54,-19,-18,0,0,0,0,0
1579894786031.25,49,-16,-24,0,0,0,0,0
1579894786062.5,42,-14,-31,0,0,0,0,0
1579894786093.75,40,-14,-37,0,0,0,0,0
1579894786125,57,-16,-38,0,0,0,0,0
1579894786156.25,54,-11,-36,0,0,0,0,0
1579894786187.5,43,15,-31,0,0,0,0,0
1579894786218.75,60,31,-38,0,0,0,0,0
1579894786250,65,31,-38,0,0,0,0,0
1579894786281.25,57,26,-33,0,0,0,0,0
1579894786312.5,66,22,-31,0,0,0,0,0
1579894786343.75,59,27,-33,0,0,0,0,0
1579894786375,60,29,-38,0,0,0,0,0
1579894786406.25,61,30,-41,0,0,0,0,0
1579894786437.5,41,26,-41,0,0,0,0,0
1579894786468.75,38,20,-36,0,0,0,0,0
1579894786500,39,14,-40,0,0,0,0,0
1579894786531.25,46,9,-50,0,0,0,0,0
1579894786562.5,55,14,-30,0,0,0,0,0
1579894786593.75,56,14,-16,0,0,0,0,0
1579894786625,57,7,-19,0,0,0,0,0
1579894786656.25,54,-8,-48,0,0,0,0,0
1579894786687.5,55,-4,-40,0,0,0,0,0
1579894786718.75,41,-3,-23,0,0,0,0,0
1579894786750,47,-1,-18,0,0,0,0,0
1579894786781.25,53,0,-14,0,0,0,0,0
1579894786812.5,49,0,-21,0,0,0,0,0
1579894786843.75,49,-1,-31,0,0,0,0,0
1579894786875,52,0,-30,0,0,0,0,0
1579894786906.25,52,5,-26,0,0,0,0,0
1579894786937.5,51,7,-31,0,0,0,0,0
1579894786968.75,61,8,-38,0,0,0,0,0
1579894787000,77,7,-56,0,0,0,0,0
1579894787031.25,87,9,-53,0,0,0,0,0
1579894787062.5,66,43,-17,0,0,0,0,0
1579894787093.75,29,43,-21,0,0,0,0,0
1579894787125,46,26,-36,0,0,0,0,0
1579894787156.25,72,17,-41,0,0,0,0,0
1579894787187.5,51,27,-16,0,0,0,0,0
1579894787218.75,41,22,-11,0,0,0,0,0
1579894787250,43,17,-18,0,0,0,0,0
1579894787281.25,47,13,-24,0,0,0,0,0
1579894787312.5,39,12,-24,0,0,0,0,0
1579894787343.75,42,15,-19,0,0,0,0,0
1579894787375,51,24,-21,0,0,0,0,0
1579894787406.25,59,23,-27,0,0,0,0,0
1579894787437.5,65,17,-30,0,0,0,0,0
1579894787468.75,64,18,-25,0,0,0,0,0
1579894787500,62,12,-33,0,0,0,0,0
1579894787531.25,87,23,-40,0,0,0,0,0
1579894787562.5,69,29,-25,0,0,0,0,0
1579894787593.75,63,26,-26,0,0,0,0,0
1579894787625,59,18,-32,0,0,0,0,0
1579894787656.25,40,18,-36,0,0,0,0,0
1579894787687.5,31,21,-37,0,0,0,0,0
1579894787718.75,30,23,-29,0,0,0,0,0
1579894787750,32,21,-28,0,0,0,0,0
1579894787781.25,45,14,-29,0,0,0,0,0
1579894787812.5,43,9,-27,0,0,0,0,0
1579894787843.75,41,9,-25,0,0,0,0,0
1579894787875,43,13,-25,0,0,0,0,0
1579894787906.25,51,13,-29,0,0,0,0,0
1579894787937.5,47,13,-29,0,0,0,0,0
1579894787968.75,43,16,-28,0,0,0,0,0
1579894788000,50,16,-34,0,0,0,0,0
1579894788031.25,57,12,-40,0,0,0,0,0
1579894788062.5,57,19,-37,0,0,0,0,0
1579894788093.75,58,32,-15,0,0,0,0,0
1579894788125,55,33,-16,0,0,0,0,0
1579894788156.25,62,26,-27,0,0,0,0,0
1579894788187.5,74,31,-33,0,0,0,0,0
1579894788218.75,76,37,-32,0,0,0,0,0
1579894788250,59,43,-18,0,0,0,0,0
1579894788281.25,39,36,-10,0,0,0,0,0
1579894788312.5,43,34,-19,0,0,0,0,0
1579894788343.75,49,33,-30,0,0,0,0,0
1579894788375,46,27,-27,0,0,0,0,0
1579894788406.25,45,26,-29,0,0,0,0,0
1579894788437.5,56,22,-36,0,0,0,0,0
1579894788468.75,56,18,-39,0,0,0,0,0
1579894788500,58,5,-51,0,0,0,0,0
1579894788531.25,60,18,-28,0,0,0,0,0
1579894788562.5,52,14,-21,0,0,0,0,0
1579894788593.75,47,8,-22,0,0,0,0,0
1579894788625,55,10,-26,0,0,0,0,0
1579894788656.25,53,10,-22,0,0,0,0,0
1579894788687.5,42,10,-19,0,0,0,0,0
1579894788718.75,54,9,-25,0,0,0,0,0
1579894788750,63,8,-26,0,0,0,0,0
1579894788781.25,61,15,-29,0,0,0,0,0
1579894788812.5,73,26,-32,0,0,0,0,0
1579894788843.75,78,31,-32,0,0,0,0,0
1579894788875,49,36,-29,0,0,0,0,0
1579894788906.25,29,44,-34,0,0,0,0,0
1579894788937.5,35,47,-38,0,0,0,0,0
1579894788968.75,33,26,-45,0,0,0,0,0
1579894789000,49,14,-37,0,0,0,0,0
1579894789031.25,45,18,-30,0,0,0,0,0
1579894789062.5,28,17,-24,0,0,0,0,0
1579894789093.75,34,13,-29,0,0,0,0,0
1579894789125,63,11,-34,0,0,0,0,0
1579894789156.25,51,21,-23,0,0,0,0,0
1579894789187.5,41,25,-23,0,0,0,0,0
1579894789218.75,47,23,-24,0,0,0,0,0
1579894789250,50,18,-28,0,0,0,0,0
1579894789281.25,50,18,-30,0,0,0,0,0
1579894789312.5,47,22,-31,0,0,0,0,0
1579894789343.75,56,24,-31,0,0,0,0,0
1579894789375,61,24,-31,0,0,0,0,0
1579894789406.25,78,28,-34,0,0,0,0,0
1579894789437.5,61,30,-15,0,0,0,0,0
1579894789468.75,47,24,-15,0,0,0,0,0
1579894789500,67,18,-38,0,0,0,0,0
1579894789531.25,65,24,-23,0,0,0,0,0
1579894789562.5,44,21,-18,0,0,0,0,0
1579894789593.75,47,9,-20,0,0,0,0,0
1579894789625,56,7,-27,0,0,0,0,0
1579894789656.25,53,8,-28,0,0,0,0,0
1579894789687.5,47,9,-21,0,0,0,0,0
1579894789718.75,49,11,-18,0,0,0,0,0
1579894789750,54,13,-6,0,0,0,0,0
1579894789781.25,47,13,-10,0,0,0,0,0
1579894789812.5,48,14,-15,0,0,0,0,0
1579894789843.75,58,15,-18,0,0,0,0,0
1579894789875,65,12,-19,0,0,0,0,0
1579894789906.25,69,10,-22,0,0,0,0,0
1579894789937.5,75,8,-36,0,0,0,0,0
1579894789968.75,84,9,-38,0,0,0,0,0
1579894790000,82,18,-36,0,0,0,0,0
1579894790031.25,58,32,-26,0,0,0,0,0
1579894790062.5,21,7,-22,0,0,0,0,0
1579894790093.75,26,-4,-30,0,0,0,0,0
1579894790125,47,6,-30,0,0,0,0,0
1579894790156.25,27,16,-27,0,0,0,0,0
1579894790187.5,32,20,-28,0,0,0,0,0
1579894790218.75,51,28,-31,0,0,0,0,0
1579894790250,53,33,-23,0,0,0,0,0
1579894790281.25,47,33,-21,0,0,0,0,0
1579894790312.5,51,31,-22,0,0,0,0,0
1579894790343.75,46,31,-25,0,0,0,0,0
1579894790375,41,29,-26,0,0,0,0,0
1579894790406.25,41,25,-26,0,0,0,0,0
1579894790437.5,57,7,-37,0,0,0,0,0
1579894790468.75,67,2,-45,0,0,0,0,0
1579894790500,66,10,-34,0,0,0,0,0
1579894790531.25,56,11,-28,0,0,0,0,0
1579894790562.5,58,7,-30,0,0,0,0,0
1579894790593.75,76,9,-29,0,0,0,0,0
1579894790625,74,10,-27,0,0,0,0,0
1579894790656.25,59,12,-18,0,0,0,0,0
1579894790687.5,41,10,-28,0,0,0,0,0
1579894790718.75,39,10,-39,0,0,0,0,0
1579894790750,56,13,-34,0,0,0,0,0
1579894790781.25,65,12,-21,0,0,0,0,0
1579894790812.5,63,11,-17,0,0,0,0,0
1579894790843.75,49,10,-22,0,0,0,0,0
1579894790875,45,4,-30,0,0,0,0,0
1579894790906.25,49,-7,-36,0,0,0,0,0
1579894790937.5,80,-8,-35,0,0,0,0,0
1579894790968.75,58,14,-17,0,0,0,0,0
1579894791000,41,19,-19,0,0,0,0,0
1579894791031.25,41,29,-24,0,0,0,0,0
1579894791062.5,50,27,-28,0,0,0,0,0
1579894791093.75,54,24,-30,0,0,0,0,0
1579894791125,59,23,-26,0,0,0,0,0
1579894791156.25,64,25,-24,0,0,0,0,0
1579894791187.5,72,30,-23,0,0,0,0,0
1579894791218.75,75,38,-24,0,0,0,0,0
1579894791250,68,38,-19,0,0,0,0,0
1579894791281.25,31,29,-23,0,0,0,0,0
1579894791312.5,36,20,-33,0,0,0,0,0
1579894791343.75,35,11,-36,0,0,0,0,0
1579894791375,50,3,-43,0,0,0,0,0
1579894791406.25,66,9,-17,0,0,0,0,0
1579894791437.5,60,11,-7,0,0,0,0,0
1579894791468.75,54,2,-8,0,0,0,0,0
1579894791500,62,-10,-23,0,0,0,0,0
1579894791531.25,61,-10,-25,0,0,0,0,0
1579894791562.5,50,-4,-18,0,0,0,0,0
1579894791593.75,44,3,-20,0,0,0,0,0
1579894791625,42,6,-22,0,0,0,0,0
1579894791656.25,46,9,-23,0,0,0,0,0
1579894791687.5,56,10,-27,0,0,0,0,0
1579894791718.75,60,12,-30,0,0,0,0,0
1579894791750,71,12,-30,0,0,0,0,0
1579894791781.25,81,9,-29,0,0,0,0,0
1579894791812.5,93,6,-39,0,0,0,0,0
1579894791843.75,74,16,-26,0,0,0,0,0
1579894791875,58,24,-12,0,0,0,0,0
1579894791906.25,55,6,-26,0,0,0,0,0
1579894791937.5,40,4,-31,0,0,0,0,0
1579894791968.75,33,16,-33,0,0,0,0,0
1579894792000,49,27,-29,0,0,0,0,0
1579894792031.25,41,21,-25,0,0,0,0,0
1579894792062.5,41,18,-28,0,0,0,0,0
1579894792093.75,48,16,-31,0,0,0,0,0
1579894792125,56,14,-25,0,0,0,0,0
1579894792156.25,59,12,-24,0,0,0,0,0
1579894792187.5,68,4,-20,0,0,0,0,0
1579894792218.75,67,4,-19,0,0,0,0,0
1579894792250,66,0,-27,0,0,0,0,0
1579894792281.25,77,12,-25,0,0,0,0,0
1579894792312.5,59,15,-20,0,0,0,0,0
1579894792343.75,54,10,-25,0,0,0,0,0
1579894792375,63,3,-25,0,0,0,0,0
1579894792406.25,66,10,-27,0,0,0,0,0
1579894792437.5,69,15,-24,0,0,0,0,0
1579894792468.75,52,16,-19,0,0,0,0,0
1579894792500,38,14,-23,0,0,0,0,0
1579894792531.25,31,9,-33,0,0,0,0,0
1579894792562.5,40,6,-37,0,0,0,0,0
1579894792593.75,45,5,-38,0,0,0,0,0
1579894792625,57,7,-35,0,0,0,0,0
1579894792656.25,68,9,-28,0,0,0,0,0
1579894792687.5,59,5,-34,0,0,0,0,0
1579894792718.75,50,3,-42,0,0,0,0,0
1579894792750,52,15,-31,0,0,0,0,0
1579894792781.25,47,20,-27,0,0,0,0,0
1579894792812.5,43,11,-31,0,0,0,0,0
1579894792843.75,47,1,-41,0,0,0,0,0
1579894792875,52,7,-37,0,0,0,0,0
1579894792906.25,47,19,-28,0,0,0,0,0
1579894792937.5,49,19,-30,0,0,0,0,0
1579894792968.75,51,20,-30,0,0,0,0,0
1579894793000,55,25,-32,0,0,0,0,0
1579894793031.25,77,31,-32,0,0,0,0,0
1579894793062.5,79,33,-33,0,0,0,0,0
1579894793093.75,60,24,-35,0,0,0,0,0
1579894793125,54,5,-39,0,0,0,0,0
1579894793156.25,63,0,-42,0,0,0,0,0
1579894793187.5,71,13,-24,0,0,0,0,0
1579894793218.75,61,16,-19,0,0,0,0,0
1579894793250,55,10,-19,0,0,0,0,0
1579894793281.25,57,4,-22,0,0,0,0,0
1579894793312.5,57,3,-19,0,0,0,0,0
1579894793343.75,50,0,-12,0,0,0,0,0
1579894793375,46,3,-10,0,0,0,0,0
1579894793406.25,46,5,-9,0,0,0,0,0
1579894793437.5,43,9,-11,0,0,0,0,0
1579894793468.75,53,9,-16,0,0,0,0,0
1579894793500,54,10,-21,0,0,0,0,0
1579894793531.25,60,11,-28,0,0,0,0,0
1579894793562.5,67,12,-37,0,0,0,0,0
1579894793593.75,74,14,-47,0,0,0,0,0
1579894793625,87,20,-58,0,0,0,0,0
1579894793656.25,74,32,-46,0,0,0,0,0
1579894793687.5,56,34,-39,0,0,0,0,0
1579894793718.75,17,13,-47,0,0,0,0,0
1579894793750,19,2,-45,0,0,0,0,0
1579894793781.25,26,7,-36,0,0,0,0,0
1579894793812.5,37,23,-27,0,0,0,0,0
1579894793843.75,42,30,-25,0,0,0,0,0
1579894793875,50,31,-28,0,0,0,0,0
1579894793906.25,54,25,-26,0,0,0,0,0
1579894793937.5,50,22,-24,0,0,0,0,0
1579894793968.75,41,19,-23,0,0,0,0,0
1579894794000,39,17,-27,0,0,0,0,0
1579894794031.25,41,17,-26,0,0,0,0,0
1579894794062.5,40,12,-38,0,0,0,0,0
1579894794093.75,55,14,-42,0,0,0,0,0
1579894794125,62,16,-38,0,0,0,0,0
1579894794156.25,55,17,-32,0,0,0,0,0
1579894794187.5,48,3,-41,0,0,0,0,0
1579894794218.75,54,-2,-42,0,0,0,0,0
1579894794250,63,1,-31,0,0,0,0,0
1579894794281.25,72,13,-31,0,0,0,0,0
1579894794312.5,69,19,-36,0,0,0,0,0
1579894794343.75,49,28,-42,0,0,0,0,0
1579894794375,49,30,-41,0,0,0,0,0
1579894794406.25,48,28,-39,0,0,0,0,0
1579894794437.5,45,18,-35,0,0,0,0,0
1579894794468.75,45,10,-31,0,0,0,0,0
1579894794500,50,8,-30,0,0,0,0,0
1579894794531.25,54,4,-31,0,0,0,0,0
1579894794562.5,57,4,-30,0,0,0,0,0
1579894794593.75,60,10,-17,0,0,0,0,0
1579894794625,54,6,-16,0,0,0,0,0
1579894794656.25,51,4,-22,0,0,0,0,0
1579894794687.5,54,8,-27,0,0,0,0,0
1579894794718.75,60,12,-24,0,0,0,0,0
1579894794750,63,12,-23,0,0,0,0,0
1579894794781.25,62,17,-26,0,0,0,0,0
1579894794812.5,64,27,-31,0,0,0,0,0
1579894794843.75,65,33,-30,0,0,0,0,0
1579894794875,51,37,-29,0,0,0,0,0
1579894794906.25,27,30,-33,0,0,0,0,0
1579894794937.5,27,23,-37,0,0,0,0,0
1579894794968.75,29,12,-45,0,0,0,0,0
1579894795000,56,9,-43,0,0,0,0,0
1579894795031.25,62,18,-28,0,0,0,0,0
1579894795062.5,53,12,-19,0,0,0,0,0
1579894795093.75,59,-1,-22,0,0,0,0,0
1579894795125,60,-3,-23,0,0,0,0,0
1579894795156.25,53,0,-17,0,0,0,0,0
1579894795187.5,50,2,-16,0,0,0,0,0
1579894795218.75,49,1,-18,0,0,0,0,0
1579894795250,48,-1,-21,0,0,0,0,0
1579894795281.25,49,-2,-24,0,0,0,0,0
1579894795312.5,52,-1,-25,0,0,0,0,0
1579894795343.75,62,1,-23,0,0,0,0,0
1579894795375,59,1,-28,0,0,0,0,0
1579894795406.25,67,-5,-43,0,0,0,0,0
1579894795437.5,85,-10,-62,0,0,0,0,0
1579894795468.75,101,1,-57,0,0,0,0,0
1579894795500,80,33,-5,0,0,0,0,0
1579894795531.25,35,19,-24,0,0,0,0,0
1579894795562.5,45,6,-35,0,0,0,0,0
1579894795593.75,48,9,-34,0,0,0,0,0
1579894795625,44,15,-17,0,0,0,0,0
1579894795656.25,41,16,-14,0,0,0,0,0
1579894795687.5,49,14,-18,0,0,0,0,0
1579894795718.75,58,19,-21,0,0,0,0,0
1579894795750,52,23,-16,0,0,0,0,0
1579894795781.25,45,29,-11,0,0,0,0,0
1579894795812.5,60,24,-15,0,0,0,0,0
1579894795843.75,63,19,-16,0,0,0,0,0
1579894795875,70,2,-22,0,0,0,0,0
1579894795906.25,75,-10,-32,0,0,0,0,0
1579894795937.5,97,-1,-17,0,0,0,0,0
1579894795968.75,69,-6,-6,0,0,0,0,0
1579894796000,52,-15,-13,0,0,0,0,0
1579894796031.25,54,-17,-17,0,0,0,0,0
1579894796062.5,63,-9,-13,0,0,0,0,0
1579894796093.75,65,-5,-12,0,0,0,0,0
1579894796125,52,1,-21,0,0,0,0,0
1579894796156.25,39,2,-28,0,0,0,0,0
1579894796187.5,40,3,-27,0,0,0,0,0
1579894796218.75,40,2,-24,0,0,0,0,0
1579894796250,53,1,-22,0,0,0,0,0
1579894796281.25,57,0,-21,0,0,0,0,0
1579894796312.5,72,2,-22,0,0,0,0,0
1579894796343.75,79,10,-38,0,0,0,0,0
1579894796375,77,18,-28,0,0,0,0,0
1579894796406.25,61,15,-16,0,0,0,0,0
1579894796437.5,46,4,-22,0,0,0,0,0
1579894796468.75,38,9,-28,0,0,0,0,0
1579894796500,50,15,-27,0,0,0,0,0
1579894796531.25,53,15,-24,0,0,0,0,0
1579894796562.5,51,12,-22,0,0,0,0,0
1579894796593.75,58,4,-20,0,0,0,0,0
1579894796625,62,4,-17,0,0,0,0,0
1579894796656.25,75,6,-16,0,0,0,0,0
1579894796687.5,86,11,-14,0,0,0,0,0
1579894796718.75,74,-4,-11,0,0,0,0,0
1579894796750,59,-15,-22,0,0,0,0,0
1579894796781.25,61,6,-16,0,0,0,0,0
1579894796812.5,66,-4,-16,0,0,0,0,0
1579894796843.75,77,-5,-6,0,0,0,0,0
1579894796875,58,-15,-11,0,0,0,0,0
1579894796906.25,51,-21,-13,0,0,0,0,0
1579894796937.5,52,-11,-9,0,0,0,0,0
1579894796968.75,53,-2,-4,0,0,0,0,0
1579894797000,50,-4,-5,0,0,0,0,0
1579894797031.25,44,-6,-12,0,0,0,0,0
1579894797062.5,51,-2,-11,0,0,0,0,0
1579894797093.75,57,0,-13,0,0,0,0,0
1579894797125,64,1,-22,0,0,0,0,0
1579894797156.25,67,1,-28,0,0,0,0,0
1579894797187.5,71,3,-29,0,0,0,0,0
1579894797218.75,74,3,-46,0,0,0,0,0
1579894797250,86,15,-55,0,0,0,0,0
1579894797281.25,90,34,-40,0,0,0,0,0
1579894797312.5,43,27,-19,0,0,0,0,0
1579894797343.75,24,12,-27,0,0,0,0,0
1579894797375,27,-13,-46,0,0,0,0,0
1579894797406.25,42,15,-32,0,0,0,0,0
1579894797437.5,38,25,-32,0,0,0,0,0
1579894797468.75,49,36,-25,0,0,0,0,0
1579894797500,55,36,-23,0,0,0,0,0
1579894797531.25,54,30,-24,0,0,0,0,0
1579894797562.5,47,23,-24,0,0,0,0,0
1579894797593.75,45,25,-24,0,0,0,0,0
1579894797625,44,25,-25,0,0,0,0,0
1579894797656.25,51,23,-26,0,0,0,0,0
1579894797687.5,61,10,-29,0,0,0,0,0
1579894797718.75,68,9,-29,0,0,0,0,0
1579894797750,67,8,-24,0,0,0,0,0
1579894797781.25,59,-1,-25,0,0,0,0,0
1579894797812.5,56,-7,-27,0,0,0,0,0
1579894797843.75,56,-9,-20,0,0,0,0,0
1579894797875,61,-2,-8,0,0,0,0,0
1579894797906.25,58,1,-8,0,0,0,0,0
1579894797937.5,70,9,-21,0,0,0,0,0
1579894797968.75,75,14,-25,0,0,0,0,0
1579894798000,49,15,-25,0,0,0,0,0
1579894798031.25,49,13,-40,0,0,0,0,0
1579894798062.5,57,14,-43,0,0,0,0,0
1579894798093.75,61,19,-33,0,0,0,0,0
1579894798125,51,16,-32,0,0,0,0,0
1579894798156.25,46,14,-40,0,0,0,0,0
1579894798187.5,48,11,-39,0,0,0,0,0
1579894798218.75,66,8,-22,0,0,0,0,0
1579894798250,67,16,-19,0,0,0,0,0
1579894798281.25,55,27,-20,0,0,0,0,0
1579894798312.5,36,35,-24,0,0,0,0,0
1579894798343.75,32,32,-28,0,0,0,0,0
1579894798375,51,22,-24,0,0,0,0,0
1579894798406.25,63,18,-20,0,0,0,0,0
1579894798437.5,64,21,-17,0,0,0,0,0
1579894798468.75,64,22,-15,0,0,0,0,0
1579894798500,76,16,-28,0,0,0,0,0
1579894798531.25,82,21,-26,0,0,0,0,0
1579894798562.5,65,35,-11,0,0,0,0,0
1579894798593.75,49,26,-19,0,0,0,0,0
1579894798625,48,21,-28,0,0,0,0,0
1579894798656.25,41,22,-28,0,0,0,0,0
1579894798687.5,38,22,-22,0,0,0,0,0
1579894798718.75,49,14,-21,0,0,0,0,0
1579894798750,62,7,-28,0,0,0,0,0
1579894798781.25,62,8,-27,0,0,0,0,0
1579894798812.5,49,17,-19,0,0,0,0,0
1579894798843.75,47,16,-19,0,0,0,0,0
1579894798875,41,19,-19,0,0,0,0,0
1579894798906.25,39,32,-25,0,0,0,0,0
1579894798937.5,56,34,-31,0,0,0,0,0
1579894798968.75,59,27,-34,0,0,0,0,0
1579894799000,56,11,-35,0,0,0,0,0
1579894799031.25,36,-12,-42,0,0,0,0,0
1579894799062.5,48,-22,-38,0,0,0,0,0
1579894799093.75,86,3,19,0,0,0,0,0
1579894799125,82,-28,21,0,0,0,0,0
1579894799156.25,71,-29,3,0,0,0,0,0
1579894799187.5,75,-11,-2,0,0,0,0,0
1579894799218.75,67,-1,-7,0,0,0,0,0
1579894799250,61,1,-7,0,0,0,0,0
1579894799281.25,48,-3,-5,0,0,0,0,0
1579894799312.5,47,-6,-4,0,0,0,0,0
1579894799343.75,53,-8,-6,0,0,0,0,0
1579894799375,63,-8,-6,0,0,0,0,0
1579894799406.25,57,-5,-16,0,0,0,0,0
1579894799437.5,53,20,-24,0,0,0,0,0
1579894799468.75,72,46,-20,0,0,0,0,0
1579894799500,93,31,-16,0,0,0,0,0
1579894799531.25,63,13,-29,0,0,0,0,0
1579894799562.5,46,-3,-28,0,0,0,0,0
1579894799593.75,51,-18,-24,0,0,0,0,0
1579894799625,54,-17,-10,0,0,0,0,0
1579894799656.25,79,-17,-5,0,0,0,0,0
1579894799687.5,64,-9,-10,0,0,0,0,0
1579894799718.75,54,-4,-28,0,0,0,0,0
1579894799750,65,-4,-35,0,0,0,0,0
1579894799781.25,55,-3,-38,0,0,0,0,0
1579894799812.5,50,7,-33,0,0,0,0,0
1579894799843.75,54,11,-25,0,0,0,0,0
1579894799875,58,15,-24,0,0,0,0,0
1579894799906.25,60,20,-19,0,0,0,0,0
1579894799937.5,57,14,-19,0,0,0,0,0
1579894799968.75,52,4,-22,0,0,0,0,0
1579894800000,47,-6,-31,0,0,0,0,0
1579894800031.25,53,-3,-29,0,0,0,0,0
1579894800062.5,63,16,-11,0,0,0,0,0
1579894800093.75,57,8,-19,0,0,0,0,0
1579894800125,53,-9,-32,0,0,0,0,0
1579894800156.25,50,-13,-41,0,0,0,0,0
1579894800187.5,61,0,-34,0,0,0,0,0
1579894800218.75,55,0,-32,0,0,0,0,0
1579894800250,41,10,-28,0,0,0,0,0
1579894800281.25,56,23,-33,0,0,0,0,0
1579894800312.5,62,21,-37,0,0,0,0,0
1579894800343.75,67,14,-37,0,0,0,0,0
1579894800375,55,10,-36,0,0,0,0,0
1579894800406.25,54,12,-37,0,0,0,0,0
1579894800437.5,61,14,-29,0,0,0,0,0
1579894800468.75,54,-1,-29,0,0,0,0,0
1579894800500,58,-6,-23,0,0,0,0,0
1579894800531.25,55,-1,-12,0,0,0,0,0
1579894800562.5,45,3,-7,0,0,0,0,0
1579894800593.75,55,0,-2,0,0,0,0,0
1579894800625,59,-10,-5,0,0,0,0,0
1579894800656.25,55,-7,-5,0,0,0,0,0
1579894800687.5,55,-6,-4,0,0,0,0,0
1579894800718.75,63,4,-1,0,0,0,0,0
1579894800750,61,10,-1,0,0,0,0,0
1579894800781.25,61,14,-9,0,0,0,0,0
1579894800812.5,83,10,-8,0,0,0,0,0
1579894800843.75,62,10,-26,0,0,0,0,0
1579894800875,54,12,-34,0,0,0,0,0
1579894800906.25,40,4,-63,0,0,0,0,0
1579894800937.5,30,-4,-52,0,0,0,0,0
1579894800968.75,74,-11,-27,0,0,0,0,0
1579894801000,68,5,-8,0,0,0,0,0
1579894801031.25,67,11,-7,0,0,0,0,0
1579894801062.5,60,10,-10,0,0,0,0,0
1579894801093.75,53,5,-14,0,0,0,0,0
1579894801125,52,4,-14,0,0,0,0,0
1579894801156.25,61,-6,-17,0,0,0,0,0
1579894801187.5,82,2,-14,0,0,0,0,0
1579894801218.75,80,6,-13,0,0,0,0,0
1579894801250,65,20,-5,0,0,0,0,0
1579894801281.25,51,20,-13,0,0,0,0,0
1579894801312.5,54,25,-19,0,0,0,0,0
1579894801343.75,62,27,-26,0,0,0,0,0
1579894801375,65,7,-26,0,0,0,0,0
1579894801406.25,66,9,-19,0,0,0,0,0
1579894801437.5,63,2,-11,0,0,0,0,0
1579894801468.75,58,2,-7,0,0,0,0,0
1579894801500,57,6,-4,0,0,0,0,0
1579894801531.25,48,4,-12,0,0,0,0,0
1579894801562.5,47,2,-14,0,0,0,0,0
1579894801593.75,51,3,-15,0,0,0,0,0
1579894801625,58,13,-15,0,0,0,0,0
1579894801656.25,59,20,-16,0,0,0,0,0
1579894801687.5,55,28,-14,0,0,0,0,0
1579894801718.75,49,27,-17,0,0,0,0,0
1579894801750,52,22,-16,0,0,0,0,0
1579894801781.25,63,8,-29,0,0,0,0,0
1579894801812.5,68,10,-35,0,0,0,0,0
1579894801843.75,71,20,-33,0,0,0,0,0
1579894801875,73,19,-38,0,0,0,0,0
1579894801906.25,59,14,-33,0,0,0,0,0
1579894801937.5,45,7,-31,0,0,0,0,0
1579894801968.75,36,4,-31,0,0,0,0,0
1579894802000,36,6,-34,0,0,0,0,0
1579894802031.25,41,6,-35,0,0,0,0,0
1579894802062.5,42,9,-36,0,0,0,0,0
1579894802093.75,44,17,-43,0,0,0,0,0
1579894802125,56,36,-38,0,0,0,0,0
1579894802156.25,51,33,-29,0,0,0,0,0
1579894802187.5,49,26,-31,0,0,0,0,0
1579894802218.75,45,22,-32,0,0,0,0,0
1579894802250,43,21,-28,0,0,0,0,0
1579894802281.25,46,19,-25,0,0,0,0,0
1579894802312.5,53,22,-21,0,0,0,0,0
1579894802343.75,54,19,-19,0,0,0,0,0
1579894802375,59,10,-24,0,0,0,0,0
1579894802406.25,63,16,-19,0,0,0,0,0
1579894802437.5,43,17,-22,0,0,0,0,0
1579894802468.75,48,8,-27,0,0,0,0,0
1579894802500,57,0,-32,0,0,0,0,0
1579894802531.25,66,17,-22,0,0,0,0,0
1579894802562.5,66,19,-21,0,0,0,0,0
1579894802593.75,62,20,-24,0,0,0,0,0
1579894802625,52,17,-22,0,0,0,0,0
1579894802656.25,48,19,-27,0,0,0,0,0
1579894802687.5,53,21,-38,0,0,0,0,0
1579894802718.75,57,12,-35,0,0,0,0,0
1579894802750,57,9,-30,0,0,0,0,0
1579894802781.25,58,9,-34,0,0,0,0,0
1579894802812.5,65,5,-37,0,0,0,0,0
1579894802843.75,61,11,-28,0,0,0,0,0
1579894802875,52,13,-24,0,0,0,0,0
1579894802906.25,55,10,-24,0,0,0,0,0
1579894802937.5,49,11,-27,0,0,0,0,0
1579894802968.75,42,28,-25,0,0,0,0,0
1579894803000,47,26,-26,0,0,0,0,0
1579894803031.25,44,20,-27,0,0,0,0,0
1579894803062.5,55,18,-24,0,0,0,0,0
1579894803093.75,61,19,-23,0,0,0,0,0
1579894803125,67,24,-17,0,0,0,0,0
1579894803156.25,64,25,-15,0,0,0,0,0
1579894803187.5,64,21,-17,0,0,0,0,0
1579894803218.75,67,24,-21,0,0,0,0,0
1579894803250,60,28,-21,0,0,0,0,0
1579894803281.25,52,31,-22,0,0,0,0,0
1579894803312.5,41,32,-18,0,0,0,0,0
1579894803343.75,32,7,-34,0,0,0,0,0
1579894803375,46,0,-40,0,0,0,0,0
1579894803406.25,42,22,-27,0,0,0,0,0
1579894803437.5,35,26,-24,0,0,0,0,0
1579894803468.75,46,19,-28,0,0,0,0,0
1579894803500,67,14,-31,0,0,0,0,0
1579894803531.25,63,17,-28,0,0,0,0,0
1579894803562.5,50,23,-32,0,0,0,0,0
1579894803593.75,49,22,-31,0,0,0,0,0
1579894803625,48,20,-32,0,0,0,0,0
1579894803656.25,47,18,-34,0,0,0,0,0
1579894803687.5,42,22,-35,0,0,0,0,0
1579894803718.75,42,23,-35,0,0,0,0,0
1579894803750,52,17,-32,0,0,0,0,0
1579894803781.25,62,13,-26,0,0,0,0,0
1579894803812.5,57,11,-28,0,0,0,0,0
1579894803843.75,64,-1,-32,0,0,0,0,0
1579894803875,60,22,-15,0,0,0,0,0
1579894803906.25,54,15,-19,0,0,0,0,0
1579894803937.5,62,9,-22,0,0,0,0,0
1579894803968.75,56,22,-22,0,0,0,0,0
1579894804000,58,29,-23,0,0,0,0,0
1579894804031.25,67,33,-16,0,0,0,0,0
1579894804062.5,45,23,-13,0,0,0,0,0
1579894804093.75,43,18,-21,0,0,0,0,0
1579894804125,54,16,-21,0,0,0,0,0
1579894804156.25,52,17,-21,0,0,0,0,0
1579894804187.5,57,17,-21,0,0,0,0,0
1579894804218.75,62,14,-19,0,0,0,0,0
1579894804250,60,14,-19,0,0,0,0,0
1579894804281.25,61,6,-33,0,0,0,0,0
1579894804312.5,66,17,-22,0,0,0,0,0
1579894804343.75,57,22,-15,0,0,0,0,0
1579894804375,45,19,-13,0,0,0,0,0
1579894804406.25,47,11,-20,0,0,0,0,0
1579894804437.5,52,8,-24,0,0,0,0,0
1579894804468.75,55,9,-21,0,0,0,0,0
1579894804500,52,15,-18,0,0,0,0,0
1579894804531.25,55,19,-17,0,0,0,0,0
1579894804562.5,58,24,-23,0,0,0,0,0
1579894804593.75,65,30,-33,0,0,0,0,0
1579894804625,69,32,-34,0,0,0,0,0
1579894804656.25,63,32,-35,0,0,0,0,0
1579894804687.5,47,32,-35,0,0,0,0,0
1579894804718.75,38,23,-43,0,0,0,0,0
1579894804750,40,25,-42,0,0,0,0,0
1579894804781.25,24,30,-31,0,0,0,0,0
1579894804812.5,27,25,-33,0,0,0,0,0
1579894804843.75,49,14,-34,0,0,0,0,0
1579894804875,46,26,-25,0,0,0,0,0
1579894804906.25,41,29,-24,0,0,0,0,0
1579894804937.5,40,31,-23,0,0,0,0,0
1579894804968.75,43,32,-23,0,0,0,0,0
1579894805000,39,34,-23,0,0,0,0,0
1579894805031.25,34,39,-24,0,0,0,0,0
1579894805062.5,33,41,-23,0,0,0,0,0
1579894805093.75,38,42,-21,0,0,0,0,0
1579894805125,42,33,-30,0,0,0,0,0
1579894805156.25,46,27,-39,0,0,0,0,0
1579894805187.5,62,30,-47,0,0,0,0,0
1579894805218.75,62,45,-25,0,0,0,0,0
1579894805250,50,42,-22,0,0,0,0,0
1579894805281.25,65,25,-35,0,0,0,0,0
1579894805312.5,77,15,-43,0,0,0,0,0
1579894805343.75,59,18,-32,0,0,0,0,0
1579894805375,34,20,-18,0,0,0,0,0
1579894805406.25,52,14,-22,0,0,0,0,0
1579894805437.5,52,12,-26,0,0,0,0,0
1579894805468.75,43,11,-30,0,0,0,0,0
1579894805500,45,11,-25,0,0,0,0,0
1579894805531.25,52,11,-22,0,0,0,0,0
1579894805562.5,56,11,-21,0,0,0,0,0
1579894805593.75,53,13,-24,0,0,0,0,0
1579894805625,49,13,-35,0,0,0,0,0
1579894805656.25,65,20,-28,0,0,0,0,0
1579894805687.5,56,27,-19,0,0,0,0,0
1579894805718.75,51,31,-12,0,0,0,0,0
1579894805750,63,30,-19,0,0,0,0,0
1579894805781.25,61,30,-22,0,0,0,0,0
1579894805812.5,48,31,-22,0,0,0,0,0
1579894805843.75,55,35,-29,0,0,0,0,0
1579894805875,67,38,-29,0,0,0,0,0
1579894805906.25,77,45,-25,0,0,0,0,0
1579894805937.5,43,46,-20,0,0,0,0,0
1579894805968.75,23,45,-22,0,0,0,0,0
1579894806000,27,41,-25,0,0,0,0,0
1579894806031.25,33,36,-26,0,0,0,0,0
1579894806062.5,35,33,-27,0,0,0,0,0
1579894806093.75,43,19,-42,0,0,0,0,0
1579894806125,50,22,-26,0,0,0,0,0
1579894806156.25,39,26,-20,0,0,0,0,0
1579894806187.5,35,21,-22,0,0,0,0,0
1579894806218.75,44,19,-31,0,0,0,0,0
1579894806250,56,15,-35,0,0,0,0,0
1579894806281.25,51,25,-22,0,0,0,0,0
1579894806312.5,41,27,-15,0,0,0,0,0
1579894806343.75,40,23,-19,0,0,0,0,0
1579894806375,49,16,-26,0,0,0,0,0
1579894806406.25,48,16,-28,0,0,0,0,0
1579894806437.5,50,20,-35,0,0,0,0,0
1579894806468.75,62,23,-39,0,0,0,0,0
1579894806500,72,29,-38,0,0,0,0,0
1579894806531.25,72,55,-29,0,0,0,0,0
1579894806562.5,43,31,-33,0,0,0,0,0
1579894806593.75,57,13,-42,0,0,0,0,0
1579894806625,82,31,-22,0,0,0,0,0
1579894806656.25,50,26,-15,0,0,0,0,0
1579894806687.5,42,9,-26,0,0,0,0,0
1579894806718.75,53,-10,-36,0,0,0,0,0
1579894806750,44,4,-18,0,0,0,0,0
1579894806781.25,38,9,-11,0,0,0,0,0
1579894806812.5,48,11,-7,0,0,0,0,0
1579894806843.75,56,8,-14,0,0,0,0,0
1579894806875,53,6,-20,0,0,0,0,0
1579894806906.25,58,7,-17,0,0,0,0,0
1579894806937.5,70,9,-7,0,0,0,0,0
1579894806968.75,73,11,-7,0,0,0,0,0
1579894807000,75,13,-12,0,0,0,0,0
1579894807031.25,74,15,-16,0,0,0,0,0
1579894807062.5,77,23,-26,0,0,0,0,0
1579894807093.75,85,28,-33,0,0,0,0,0
1579894807125,65,26,-37,0,0,0,0,0
1579894807156.25,27,22,-40,0,0,0,0,0
1579894807187.5,30,-2,-52,0,0,0,0,0
1579894807218.75,39,-8,-58,0,0,0,0,0
1579894807250,48,-7,-48,0,0,0,0,0
1579894807281.25,41,-4,-47,0,0,0,0,0
1579894807312.5,42,2,-44,0,0,0,0,0
1579894807343.75,51,13,-33,0,0,0,0,0
1579894807375,43,14,-33,0,0,0,0,0
1579894807406.25,41,12,-36,0,0,0,0,0
1579894807437.5,41,9,-38,0,0,0,0,0
1579894807468.75,42,7,-41,0,0,0,0,0
1579894807500,46,9,-38,0,0,0,0,0
1579894807531.25,52,14,-28,0,0,0,0,0
1579894807562.5,54,13,-28,0,0,0,0,0
1579894807593.75,55,7,-28,0,0,0,0,0
1579894807625,54,9,-26,0,0,0,0,0
1579894807656.25,52,11,-25,0,0,0,0,0
1579894807687.5,49,11,-26,0,0,0,0,0
1579894807718.75,53,7,-32,0,0,0,0,0
1579894807750,61,4,-37,0,0,0,0,0
1579894807781.25,72,9,-36,0,0,0,0,0
1579894807812.5,53,15,-27,0,0,0,0,0
1579894807843.75,50,15,-23,0,0,0,0,0
1579894807875,51,13,-23,0,0,0,0,0
1579894807906.25,53,9,-30,0,0,0,0,0
1579894807937.5,54,7,-35,0,0,0,0,0
1579894807968.75,63,6,-35,0,0,0,0,0
1579894808000,65,9,-26,0,0,0,0,0
1579894808031.25,63,10,-22,0,0,0,0,0
1579894808062.5,61,10,-15,0,0,0,0,0
1579894808093.75,55,11,-20,0,0,0,0,0
1579894808125,51,10,-24,0,0,0,0,0
1579894808156.25,44,9,-33,0,0,0,0,0
1579894808187.5,48,16,-32,0,0,0,0,0
1579894808218.75,48,18,-30,0,0,0,0,0
1579894808250,48,17,-35,0,0,0,0,0
1579894808281.25,60,23,-37,0,0,0,0,0
1579894808312.5,59,28,-28,0,0,0,0,0
1579894808343.75,47,26,-24,0,0,0,0,0
1579894808375,47,23,-28,0,0,0,0,0
1579894808406.25,49,14,-37,0,0,0,0,0
1579894808437.5,48,13,-38,0,0,0,0,0
1579894808468.75,47,15,-35,0,0,0,0,0
1579894808500,47,16,-30,0,0,0,0,0
1579894808531.25,49,14,-28,0,0,0,0,0
1579894808562.5,49,13,-27,0,0,0,0,0
1579894808593.75,51,11,-27,0,0,0,0,0
1579894808625,52,10,-26,0,0,0,0,0
1579894808656.25,52,10,-25,0,0,0,0,0
1579894808687.5,52,9,-26,0,0,0,0,0
1579894808718.75,53,10,-26,0,0,0,0,0
1579894808750,52,10,-27,0,0,0,0,0
1579894808781.25,53,9,-28,0,0,0,0,0
1579894808812.5,51,8,-28,0,0,0,0,0
1579894808843.75,51,7,-29,0,0,0,0,0
1579894808875,53,6,-31,0,0,0,0,0
1579894808906.25,56,6,-30,0,0,0,0,0
1579894808937.5,56,6,-30,0,0,0,0,0
1579894808968.75,57,6,-30,0,0,0,0,0
1579894809000,60,5,-29,0,0,0,0,0
1579894809031.25,60,5,-29,0,0,0,0,0
1579894809062.5,59,5,-29,0,0,0,0,0
1579894809093.75,58,5,-28,0,0,0,0,0
1579894809125,57,4,-29,0,0,0,0,0
1579894809156.25,55,4,-30,0,0,0,0,0
1579894809187.5,55,4,-30,0,0,0,0,0
1579894809218.75,55,5,-30,0,0,0,0,0
1579894809250,55,5,-29,0,0,0,0,0
1579894809281.25,55,6,-29,0,0,0,0,0
1579894809312.5,56,5,-29,0,0,0,0,0
1579894809343.75,56,5,-28,0,0,0,0,0
1579894809375,55,5,-28,0,0,0,0,0
1579894809406.25,53,5,-28,0,0,0,0,0
1579894809437.5,53,6,-30,0,0,0,0,0
1579894809468.75,53,7,-30,0,0,0,0,0
1579894809500,54,6,-29,0,0,0,0,0
1579894809531.25,55,5,-28,0,0,0,0,0
1579894809562.5,55,5,-28,0,0,0,0,0
1579894809593.75,56,4,-28,0,0,0,0,0
1579894809625,56,4,-28,0,0,0,0,0
1579894809656.25,59,2,-27,0,0,0,0,0
1579894809687.5,61,3,-28,0,0,0,0,0
1579894809718.75,59,4,-29,0,0,0,0,0
1579894809750,54,6,-29,0,0,0,0,0
1579894809781.25,53,6,-29,0,0,0,0,0
1579894809812.5,53,6,-30,0,0,0,0,0
1579894809843.75,56,6,-28,0,0,0,0,0
1579894809875,62,8,-28,0,0,0,0,0
1579894809906.25,63,10,-27,0,0,0,0,0
1579894809937.5,58,12,-27,0,0,0,0,0
1579894809968.75,51,12,-28,0,0,0,0,0
1579894810000,48,11,-30,0,0,0,0,0
1579894810031.25,49,12,-34,0,0,0,0,0
1579894810062.5,49,12,-37,0,0,0,0,0
1579894810093.75,45,12,-39,0,0,0,0,0
1579894810125,41,15,-42,0,0,0,0,0
1579894810156.25,43,17,-45,0,0,0,0,0
1579894810187.5,41,17,-46,0,0,0,0,0
1579894810218.75,40,18,-47,0,0,0,0,0
1579894810250,39,18,-45,0,0,0,0,0
1579894810281.25,40,17,-43,0,0,0,0,0
1579894810312.5,42,17,-42,0,0,0,0,0
1579894810343.75,44,14,-40,0,0,0,0,0
1579894810375,44,13,-39,0,0,0,0,0
1579894810406.25,46,14,-38,0,0,0,0,0
1579894810437.5,45,14,-38,0,0,0,0,0
1579894810468.75,43,13,-37,0,0,0,0,0
1579894810500,45,11,-39,0,0,0,0,0
1579894810531.25,45,10,-39,0,0,0,0,0
1579894810562.5,42,10,-40,0,0,0,0,0
1579894810593.75,45,13,-40,0,0,0,0,0
1579894810625,44,13,-40,0,0,0,0,0
1579894810656.25,42,13,-42,0,0,0,0,0
1579894810687.5,42,14,-43,0,0,0,0,0
1579894810718.75,43,15,-43,0,0,0,0,0
1579894810750,53,18,-43,0,0,0,0,0
1579894810781.25,54,16,-44,0,0,0,0,0
1579894810812.5,51,15,-45,0,0,0,0,0
1579894810843.75,36,15,-46,0,0,0,0,0
1579894810875,36,14,-45,0,0,0,0,0
1579894810906.25,36,15,-45,0,0,0,0,0
1579894810937.5,35,15,-45,0,0,0,0,0
1579894810968.75,33,20,-49,0,0,0,0,0
1579894811000,31,21,-52,0,0,0,0,0
1579894811031.25,20,22,-57,0,0,0,0,0
1579894811062.5,15,24,-63,0,0,0,0,0
1579894811093.75,14,26,-64,0,0,0,0,0
1579894811125,7,23,-69,0,0,0,0,0
1579894811156.25,8,19,-68,0,0,0,0,0
1579894811187.5,13,17,-63,0,0,0,0,0
1579894811218.75,17,21,-58,0,0,0,0,0
1579894811250,17,25,-57,0,0,0,0,0
1579894811281.25,23,22,-62,0,0,0,0,0
1579894811312.5,28,23,-63,0,0,0,0,0
1579894811343.75,25,25,-63,0,0,0,0,0
1579894811375,23,26,-53,0,0,0,0,0
1579894811406.25,34,38,-43,0,0,0,0,0
1579894811437.5,41,29,-36,0,0,0,0,0
1579894811468.75,46,23,-28,0,0,0,0,0
1579894811500,65,18,-21,0,0,0,0,0
1579894811531.25,56,27,-19,0,0,0,0,0
1579894811562.5,46,24,-19,0,0,0,0,0
1579894811593.75,41,34,-22,0,0,0,0,0
1579894811625,37,38,-28,0,0,0,0,0
1579894811656.25,51,41,-31,0,0,0,0,0
1579894811687.5,46,43,-34,0,0,0,0,0
1579894811718.75,37,48,-36,0,0,0,0,0
1579894811750,36,32,-43,0,0,0,0,0
1579894811781.25,37,22,-49,0,0,0,0,0
1579894811812.5,27,14,-67,0,0,0,0,0
1579894811843.75,45,0,-62,0,0,0,0,0
1579894811875,60,5,-43,0,0,0,0,0
1579894811906.25,44,30,-35,0,0,0,0,0
1579894811937.5,45,48,-32,0,0,0,0,0
1579894811968.75,48,44,-32,0,0,0,0,0
1579894812000,45,29,-43,0,0,0,0,0
1579894812031.25,25,17,-52,0,0,0,0,0
1579894812062.5,30,14,-41,0,0,0,0,0
1579894812093.75,51,16,-29,0,0,0,0,0
1579894812125,47,21,-31,0,0,0,0,0
1579894812156.25,46,21,-36,0,0,0,0,0
1579894812187.5,40,17,-44,0,0,0,0,0
1579894812218.75,42,10,-32,0,0,0,0,0
1579894812250,51,10,-28,0,0,0,0,0
1579894812281.25,56,21,-28,0,0,0,0,0
1579894812312.5,48,25,-45,0,0,0,0,0
1579894812343.75,46,22,-52,0,0,0,0,0
1579894812375,52,7,-53,0,0,0,0,0
1579894812406.25,50,-3,-53,0,0,0,0,0
1579894812437.5,53,3,-50,0,0,0,0,0
1579894812468.75,53,24,-39,0,0,0,0,0
1579894812500,45,32,-40,0,0,0,0,0
1579894812531.25,42,27,-52,0,0,0,0,0
1579894812562.5,48,16,-54,0,0,0,0,0
1579894812593.75,40,18,-57,0,0,0,0,0
1579894812625,42,22,-53,0,0,0,0,0
1579894812656.25,56,27,-41,0,0,0,0,0
1579894812687.5,55,32,-33,0,0,0,0,0
1579894812718.75,41,36,-32,0,0,0,0,0
1579894812750,34,31,-31,0,0,0,0,0
1579894812781.25,34,26,-29,0,0,0,0,0
1579894812812.5,35,18,-23,0,0,0,0,0
1579894812843.75,36,19,-28,0,0,0,0,0
1579894812875,40,16,-31,0,0,0,0,0
1579894812906.25,43,13,-36,0,0,0,0,0
1579894812937.5,32,13,-40,0,0,0,0,0
1579894812968.75,33,15,-39,0,0,0,0,0
1579894813000,40,28,-34,0,0,0,0,0
1579894813031.25,48,31,-35,0,0,0,0,0
1579894813062.5,44,30,-40,0,0,0,0,0
1579894813093.75,41,28,-40,0,0,0,0,0
1579894813125,38,29,-41,0,0,0,0,0
1579894813156.25,38,31,-42,0,0,0,0,0
1579894813187.5,46,30,-40,0,0,0,0,0
1579894813218.75,45,33,-41,0,0,0,0,0
1579894813250,46,37,-33,0,0,0,0,0
1579894813281.25,44,32,-30,0,0,0,0,0
1579894813312.5,41,30,-29,0,0,0,0,0
1579894813343.75,40,27,-31,0,0,0,0,0
1579894813375,43,29,-26,0,0,0,0,0
1579894813406.25,44,33,-26,0,0,0,0,0
1579894813437.5,46,30,-33,0,0,0,0,0
1579894813468.75,49,22,-35,0,0,0,0,0
1579894813500,54,20,-36,0,0,0,0,0
1579894813531.25,53,27,-38,0,0,0,0,0
1579894813562.5,35,35,-38,0,0,0,0,0
1579894813593.75,32,34,-40,0,0,0,0,0
1579894813625,36,33,-40,0,0,0,0,0
1579894813656.25,39,36,-37,0,0,0,0,0
1579894813687.5,36,37,-38,0,0,0,0,0
1579894813718.75,34,37,-47,0,0,0,0,0
1579894813750,34,36,-48,0,0,0,0,0
1579894813781.25,39,38,-47,0,0,0,0,0
1579894813812.5,33,42,-44,0,0,0,0,0
1579894813843.75,42,40,-37,0,0,0,0,0
1579894813875,36,38,-32,0,0,0,0,0
1579894813906.25,22,39,-30,0,0,0,0,0
1579894813937.5,28,43,-30,0,0,0,0,0
1579894813968.75,25,39,-28,0,0,0,0,0
1579894814000,27,37,-34,0,0,0,0,0
1579894814031.25,29,37,-36,0,0,0,0,0
1579894814062.5,33,37,-38,0,0,0,0,0
1579894814093.75,38,37,-35,0,0,0,0,0
1579894814125,35,35,-32,0,0,0,0,0
1579894814156.25,35,34,-28,0,0,0,0,0
1579894814187.5,40,34,-31,0,0,0,0,0
1579894814218.75,43,30,-36,0,0,0,0,0
1579894814250,36,28,-45,0,0,0,0,0
1579894814281.25,36,37,-34,0,0,0,0,0
1579894814312.5,36,44,-34,0,0,0,0,0
1579894814343.75,37,47,-35,0,0,0,0,0
1579894814375,36,42,-29,0,0,0,0,0
1579894814406.25,40,38,-30,0,0,0,0,0
1579894814437.5,42,27,-41,0,0,0,0,0
1579894814468.75,39,20,-46,0,0,0,0,0
1579894814500,42,25,-35,0,0,0,0,0
1579894814531.25,31,37,-26,0,0,0,0,0
1579894814562.5,28,39,-32,0,0,0,0,0
1579894814593.75,25,36,-45,0,0,0,0,0
1579894814625,26,32,-52,0,0,0,0,0
1579894814656.25,36,32,-49,0,0,0,0,0
1579894814687.5,34,29,-39,0,0,0,0,0
1579894814718.75,36,32,-33,0,0,0,0,0
1579894814750,37,32,-29,0,0,0,0,0
1579894814781.25,37,26,-45,0,0,0,0,0
1579894814812.5,32,22,-41,0,0,0,0,0
1579894814843.75,29,21,-50,0,0,0,0,0
1579894814875,39,14,-49,0,0,0,0,0
1579894814906.25,48,18,-45,0,0,0,0,0
1579894814937.5,42,20,-48,0,0,0,0,0
1579894814968.75,32,19,-47,0,0,0,0,0
1579894815000,35,21,-48,0,0,0,0,0
1579894815031.25,42,20,-47,0,0,0,0,0
1579894815062.5,41,14,-51,0,0,0,0,0
1579894815093.75,39,15,-49,0,0,0,0,0
1579894815125,42,17,-49,0,0,0,0,0
1579894815156.25,38,18,-49,0,0,0,0,0
1579894815187.5,34,14,-52,0,0,0,0,0
1579894815218.75,33,11,-50,0,0,0,0,0
1579894815250,37,12,-47,0,0,0,0,0
1579894815281.25,40,13,-44,0,0,0,0,0
1579894815312.5,42,12,-45,0,0,0,0,0
1579894815343.75,49,5,-43,0,0,0,0,0
1579894815375,48,3,-42,0,0,0,0,0
1579894815406.25,47,4,-39,0,0,0,0,0
1579894815437.5,51,5,-41,0,0,0,0,0
1579894815468.75,53,6,-41,0,0,0,0,0
1579894815500,42,4,-48,0,0,0,0,0
1579894815531.25,38,4,-49,0,0,0,0,0
1579894815562.5,42,5,-48,0,0,0,0,0
1579894815593.75,47,8,-47,0,0,0,0,0
1579894815625,35,5,-48,0,0,0,0,0
1579894815656.25,35,4,-48,0,0,0,0,0
1579894815687.5,48,-1,-46,0,0,0,0,0
1579894815718.75,45,-4,-44,0,0,0,0,0
1579894815750,43,-6,-42,0,0,0,0,0
1579894815781.25,41,-4,-41,0,0,0,0,0
1579894815812.5,40,-3,-42,0,0,0,0,0
1579894815843.75,47,-3,-41,0,0,0,0,0
1579894815875,46,-5,-42,0,0,0,0,0
1579894815906.25,44,-6,-42,0,0,0,0,0
1579894815937.5,44,-6,-42,0,0,0,0,0
1579894815968.75,47,-6,-43,0,0,0,0,0
1579894816000,44,-4,-43,0,0,0,0,0
1579894816031.25,44,-4,-43,0,0,0,0,0
1579894816062.5,44,-5,-42,0,0,0,0,0
1579894816093.75,43,-5,-43,0,0,0,0,0
1579894816125,46,-6,-44,0,0,0,0,0
1579894816156.25,46,-5,-45,0,0,0,0,0
1579894816187.5,43,-4,-45,0,0,0,0,0
1579894816218.75,44,-4,-44,0,0,0,0,0
1579894816250,45,-5,-43,0,0,0,0,0
1579894816281.25,44,-5,-42,0,0,0,0,0
1579894816312.5,42,-7,-43,0,0,0,0,0
1579894816343.75,43,-8,-43,0,0,0,0,0
1579894816375,46,-8,-42,0,0,0,0,0
1579894816406.25,46,-8,-43,0,0,0,0,0
1579894816437.5,43,-7,-45,0,0,0,0,0
1579894816468.75,44,-7,-44,0,0,0,0,0
1579894816500,46,-7,-44,0,0,0,0,0
1579894816531.25,44,-6,-45,0,0,0,0,0
1579894816562.5,43,-6,-45,0,0,0,0,0
1579894816593.75,40,-6,-47,0,0,0,0,0
1579894816625,43,-6,-46,0,0,0,0,0
1579894816656.25,43,-7,-44,0,0,0,0,0
1579894816687.5,43,-9,-43,0,0,0,0,0
1579894816718.75,45,-9,-42,0,0,0,0,0
1579894816750,48,-8,-41,0,0,0,0,0
1579894816781.25,46,-8,-42,0,0,0,0,0
1579894816812.5,44,-7,-42,0,0,0,0,0
1579894816843.75,43,-6,-42,0,0,0,0,0
1579894816875,43,-8,-42,0,0,0,0,0
1579894816906.25,42,-9,-43,0,0,0,0,0
1579894816937.5,43,-10,-44,0,0,0,0,0
1579894816968.75,44,-8,-44,0,0,0,0,0
1579894817000,43,-7,-44,0,0,0,0,0
1579894817031.25,43,-5,-46,0,0,0,0,0
1579894817062.5,42,-5,-47,0,0,0,0,0
1579894817093.75,41,-5,-47,0,0,0,0,0
1579894817125,41,-5,-46,0,0,0,0,0
1579894817156.25,43,-6,-45,0,0,0,0,0
1579894817187.5,43,-6,-45,0,0,0,0,0
1579894817218.75,43,-4,-45,0,0,0,0,0
1579894817250,46,-4,-45,0,0,0,0,0
1579894817281.25,47,-5,-45,0,0,0,0,0
1579894817312.5,42,-6,-46,0,0,0,0,0
1579894817343.75,40,-7,-45,0,0,0,0,0
1579894817375,43,-7,-42,0,0,0,0,0
1579894817406.25,44,-7,-41,0,0,0,0,0
1579894817437.5,41,-6,-42,0,0,0,0,0
1579894817468.75,41,-5,-43,0,0,0,0,0
1579894817500,43,-5,-44,0,0,0,0,0
1579894817531.25,44,-5,-44,0,0,0,0,0
1579894817562.5,44,-4,-44,0,0,0,0,0
1579894817593.75,46,-4,-44,0,0,0,0,0
1579894817625,47,-4,-45,0,0,0,0,0
1579894817656.25,43,-3,-46,0,0,0,0,0
1579894817687.5,44,-3,-45,0,0,0,0,0
1579894817718.75,43,-3,-44,0,0,0,0,0
1579894817750,41,-4,-44,0,0,0,0,0
1579894817781.25,45,-4,-43,0,0,0,0,0
1579894817812.5,45,-3,-42,0,0,0,0,0
1579894817843.75,44,-3,-42,0,0,0,0,0
1579894817875,45,-3,-41,0,0,0,0,0
1579894817906.25,47,-4,-41,0,0,0,0,0
1579894817937.5,46,-4,-41,0,0,0,0,0
1579894817968.75,46,-4,-41,0,0,0,0,0
1579894818000,48,-4,-41,0,0,0,0,0
1579894818031.25,49,-3,-41,0,0,0,0,0
1579894818062.5,49,-3,-41,0,0,0,0,0
1579894818093.75,48,-3,-40,0,0,0,0,0
1579894818125,47,-4,-39,0,0,0,0,0
1579894818156.25,48,-5,-39,0,0,0,0,0
1579894818187.5,49,-5,-39,0,0,0,0,0
1579894818218.75,49,-4,-38,0,0,0,0,0
1579894818250,48,-3,-38,0,0,0,0,0
1579894818281.25,47,-3,-39,0,0,0,0,0
1579894818312.5,48,-4,-39,0,0,0,0,0
1579894818343.75,46,-4,-39,0,0,0,0,0
1579894818375,45,-5,-40,0,0,0,0,0
1579894818406.25,47,-5,-41,0,0,0,0,0
1579894818437.5,47,-4,-40,0,0,0,0,0
1579894818468.75,47,-2,-40,0,0,0,0,0
1579894818500,46,-3,-41,0,0,0,0,0
1579894818531.25,46,-3,-41,0,0,0,0,0
1579894818562.5,47,-2,-41,0,0,0,0,0
1579894818593.75,48,-1,-40,0,0,0,0,0
1579894818625,48,-1,-39,0,0,0,0,0
1579894818656.25,47,-2,-40,0,0,0,0,0
1579894818687.5,47,-3,-40,0,0,0,0,0
1579894818718.75,50,-3,-40,0,0,0,0,0
1579894818750,47,-4,-41,0,0,0,0,0
1579894818781.25,46,-5,-41,0,0,0,0,0
1579894818812.5,48,-4,-41,0,0,0,0,0
1579894818843.75,47,-4,-40,0,0,0,0,0
1579894818875,45,-3,-40,0,0,0,0,0
1579894818906.25,46,-3,-41,0,0,0,0,0
1579894818937.5,47,-3,-41,0,0,0,0,0
1579894818968.75,46,-2,-41,0,0,0,0,0
1579894819000,47,-2,-41,0,0,0,0,0
1579894819031.25,46,-2,-41,0,0,0,0,0
1579894819062.5,45,-2,-42,0,0,0,0,0
1579894819093.75,45,-2,-42,0,0,0,0,0
1579894819125,47,-2,-42,0,0,0,0,0
1579894819156.25,47,-1,-42,0,0,0,0,0
1579894819187.5,47,-1,-42,0,0,0,0,0
1579894819218.75,46,-1,-41,0,0,0,0,0
1579894819250,47,-1,-41,0,0,0,0,0
1579894819281.25,47,-2,-41,0,0,0,0,0
1579894819312.5,46,-3,-40,0,0,0,0,0
1579894819343.75,46,-3,-40,0,0,0,0,0
1579894819375,47,-1,-42,0,0,0,0,0
1579894819406.25,47,-1,-42,0,0,0,0,0
1579894819437.5,47,0,-42,0,0,0,0,0
1579894819468.75,46,-1,-41,0,0,0,0,0
1579894819500,46,-1,-41,0,0,0,0,0
1579894819531.25,47,-2,-42,0,0,0,0,0
1579894819562.5,47,-2,-42,0,0,0,0,0
1579894819593.75,45,-3,-41,0,0,0,0,0
1579894819625,45,-4,-41,0,0,0,0,0
1579894819656.25,48,-4,-41,0,0,0,0,0
1579894819687.5,47,-3,-40,0,0,0,0,0
1579894819718.75,47,-2,-40,0,0,0,0,0
1579894819750,46,-2,-40,0,0,0,0,0
1579894819781.25,46,-2,-40,0,0,0,0,0
1579894819812.5,47,-3,-40,0,0,0,0,0
1579894819843.75,46,-3,-41,0,0,0,0,0
1579894819875,46,-3,-42,0,0,0,0,0
1579894819906.25,46,-2,-42,0,0,0,0,0
1579894819937.5,45,-2,-43,0,0,0,0,0
1579894819968.75,46,-2,-43,0,0,0,0,0
1579894820000,47,0,-42,0,0,0,0,0
1579894820031.25,45,0,-42,0,0,0,0,0
1579894820062.5,45,-2,-43,0,0,0,0,0
1579894820093.75,46,-4,-42,0,0,0,0,0
1579894820125,46,-4,-43,0,0,0,0,0
1579894820156.25,44,-4,-43,0,0,0,0,0
1579894820187.5,44,-2,-43,0,0,0,0,0
1579894820218.75,44,-1,-43,0,0,0,0,0
1579894820250,45,0,-43,0,0,0,0,0
1579894820281.25,42,0,-45,0,0,0,0,0
1579894820312.5,42,0,-46,0,0,0,0,0
1579894820343.75,42,1,-48,0,0,0,0,0
1579894820375,44,2,-49,0,0,0,0,0
1579894820406.25,42,2,-48,0,0,0,0,0
1579894820437.5,38,0,-47,0,0,0,0,0
1579894820468.75,43,-2,-45,0,0,0,0,0
1579894820500,46,-1,-45,0,0,0,0,0
1579894820531.25,45,1,-43,0,0,0,0,0
1579894820562.5,41,2,-43,0,0,0,0,0
1579894820593.75,41,2,-42,0,0,0,0,0
1579894820625,39,-4,-42,0,0,0,0,0
1579894820656.25,34,-8,-46,0,0,0,0,0
1579894820687.5,37,-8,-48,0,0,0,0,0
1579894820718.75,37,-6,-50,0,0,0,0,0
1579894820750,36,-3,-50,0,0,0,0,0
1579894820781.25,37,1,-51,0,0,0,0,0
1579894820812.5,38,2,-52,0,0,0,0,0
1579894820843.75,37,0,-52,0,0,0,0,0
1579894820875,39,0,-53,0,0,0,0,0
1579894820906.25,43,0,-56,0,0,0,0,0
1579894820937.5,46,-1,-47,0,0,0,0,0
1579894820968.75,54,-1,-42,0,0,0,0,0
1579894821000,50,-2,-56,0,0,0,0,0
1579894821031.25,66,5,-52,0,0,0,0,0
1579894821062.5,61,14,-45,0,0,0,0,0
1579894821093.75,32,3,-42,0,0,0,0,0
1579894821125,41,-1,-37,0,0,0,0,0
1579894821156.25,39,0,-35,0,0,0,0,0
1579894821187.5,52,-2,-24,0,0,0,0,0
1579894821218.75,56,1,-22,0,0,0,0,0
1579894821250,41,5,-26,0,0,0,0,0
1579894821281.25,46,2,-24,0,0,0,0,0
1579894821312.5,47,2,-21,0,0,0,0,0
1579894821343.75,62,-10,-22,0,0,0,0,0
1579894821375,46,-13,-43,0,0,0,0,0
1579894821406.25,61,-7,-36,0,0,0,0,0
1579894821437.5,71,17,-19,0,0,0,0,0
1579894821468.75,67,23,-28,0,0,0,0,0
1579894821500,33,14,-39,0,0,0,0,0
1579894821531.25,26,-19,-20,0,0,0,0,0
1579894821562.5,44,-24,-15,0,0,0,0,0
1579894821593.75,46,-27,-20,0,0,0,0,0
1579894821625,48,-33,-17,0,0,0,0,0
1579894821656.25,42,-35,-18,0,0,0,0,0
1579894821687.5,34,-24,-13,0,0,0,0,0
1579894821718.75,42,-28,2,0,0,0,0,0
1579894821750,44,-35,5,0,0,0,0,0
1579894821781.25,59,-81,17,0,0,0,0,0
1579894821812.5,127,-42,10,0,0,0,0,0
1579894821843.75,127,-37,10,0,0,0,0,0
1579894821875,54,-46,-11,0,0,0,0,0
1579894821906.25,51,-45,8,0,0,0,0,0
1579894821937.5,37,-45,-1,0,0,0,0,0
1579894821968.75,21,-50,-13,0,0,0,0,0
1579894822000,21,-61,-15,0,0,0,0,0
1579894822031.25,20,-58,-12,0,0,0,0,0
1579894822062.5,15,-55,-10,0,0,0,0,0
1579894822093.75,14,-53,-7,0,0,0,0,0
1579894822125,16,-53,-4,0,0,0,0,0
1579894822156.25,22,-54,1,0,0,0,0,0
1579894822187.5,25,-53,4,0,0,0,0,0
1579894822218.75,31,-54,9,0,0,0,0,0
1579894822250,32,-60,10,0,0,0,0,0
1579894822281.25,31,-65,14,0,0,0,0,0
1579894822312.5,27,-71,38,0,0,0,0,0
1579894822343.75,4,-59,22,0,0,0,0,0
1579894822375,19,-52,12,0,0,0,0,0
1579894822406.25,23,-59,-2,0,0,0,0,0
1579894822437.5,25,-60,-5,0,0,0,0,0
1579894822468.75,24,-58,-4,0,0,0,0,0
1579894822500,19,-52,-4,0,0,0,0,0
1579894822531.25,23,-56,-3,0,0,0,0,0
1579894822562.5,23,-57,-3,0,0,0,0,0
1579894822593.75,33,-60,-1,0,0,0,0,0
1579894822625,41,-71,-15,0,0,0,0,0
1579894822656.25,44,-76,-20,0,0,0,0,0
1579894822687.5,56,-51,-11,0,0,0,0,0
1579894822718.75,67,-37,-5,0,0,0,0,0
1579894822750,69,-35,0,0,0,0,0,0
1579894822781.25,65,-37,0,0,0,0,0,0
1579894822812.5,61,-38,-6,0,0,0,0,0
1579894822843.75,55,-46,-15,0,0,0,0,0
1579894822875,52,-51,-16,0,0,0,0,0
1579894822906.25,48,-49,-20,0,0,0,0,0
1579894822937.5,33,-35,-18,0,0,0,0,0
1579894822968.75,34,-21,-10,0,0,0,0,0
1579894823000,35,-17,-19,0,0,0,0,0
1579894823031.25,41,-17,-18,0,0,0,0,0
1579894823062.5,49,-29,-8,0,0,0,0,0
1579894823093.75,43,-28,-10,0,0,0,0,0
1579894823125,38,-31,-14,0,0,0,0,0
1579894823156.25,48,-40,-1,0,0,0,0,0
1579894823187.5,94,-52,79,0,0,0,0,0
1579894823218.75,59,-7,-3,0,0,0,0,0
1579894823250,121,-32,-7,0,0,0,0,0
1579894823281.25,81,-22,1,0,0,0,0,0
1579894823312.5,54,-30,-5,0,0,0,0,0
1579894823343.75,43,-23,0,0,0,0,0,0
1579894823375,52,-17,-2,0,0,0,0,0
1579894823406.25,96,-12,16,0,0,0,0,0
1579894823437.5,86,-7,39,0,0,0,0,0
1579894823468.75,73,-6,39,0,0,0,0,0
1579894823500,44,1,28,0,0,0,0,0
1579894823531.25,37,6,26,0,0,0,0,0
1579894823562.5,54,13,24,0,0,0,0,0
1579894823593.75,67,11,29,0,0,0,0,0
1579894823625,47,11,25,0,0,0,0,0
1579894823656.25,19,13,22,0,0,0,0,0
1579894823687.5,41,22,35,0,0,0,0,0
1579894823718.75,50,23,39,0,0,0,0,0
1579894823750,41,23,39,0,0,0,0,0
1579894823781.25,30,24,37,0,0,0,0,0
1579894823812.5,32,26,36,0,0,0,0,0
1579894823843.75,31,26,37,0,0,0,0,0
1579894823875,39,24,37,0,0,0,0,0
1579894823906.25,32,24,38,0,0,0,0,0
1579894823937.5,29,21,48,0,0,0,0,0
1579894823968.75,28,21,38,0,0,0,0,0
1579894824000,33,26,32,0,0,0,0,0
1579894824031.25,53,33,34,0,0,0,0,0
1579894824062.5,41,33,43,0,0,0,0,0
1579894824093.75,40,29,48,0,0,0,0,0
1579894824125,46,31,61,0,0,0,0,0
1579894824156.25,40,37,54,0,0,0,0,0
1579894824187.5,34,31,46,0,0,0,0,0
1579894824218.75,35,27,43,0,0,0,0,0
1579894824250,38,25,41,0,0,0,0,0
1579894824281.25,38,25,41,0,0,0,0,0
1579894824312.5,36,29,38,0,0,0,0,0
1579894824343.75,37,28,39,0,0,0,0,0
1579894824375,40,28,41,0,0,0,0,0
1579894824406.25,40,31,37,0,0,0,0,0
1579894824437.5,39,31,37,0,0,0,0,0
1579894824468.75,44,32,39,0,0,0,0,0
1579894824500,45,33,39,0,0,0,0,0
1579894824531.25,43,32,38,0,0,0,0,0
1579894824562.5,43,30,34,0,0,0,0,0
1579894824593.75,48,33,35,0,0,0,0,0
1579894824625,46,34,33,0,0,0,0,0
1579894824656.25,41,32,31,0,0,0,0,0
1579894824687.5,43,30,33,0,0,0,0,0
1579894824718.75,41,30,34,0,0,0,0,0
1579894824750,41,31,36,0,0,0,0,0
1579894824781.25,42,36,33,0,0,0,0,0
1579894824812.5,40,36,32,0,0,0,0,0
1579894824843.75,42,35,35,0,0,0,0,0
1579894824875,43,36,34,0,0,0,0,0
1579894824906.25,46,42,30,0,0,0,0,0
1579894824937.5,50,41,31,0,0,0,0,0
1579894824968.75,47,39,31,0,0,0,0,0
1579894825000,39,36,30,0,0,0,0,0
1579894825031.25,33,20,29,0,0,0,0,0
1579894825062.5,34,14,41,0,0,0,0,0
1579894825093.75,45,19,48,0,0,0,0,0
1579894825125,32,19,44,0,0,0,0,0
1579894825156.25,33,19,47,0,0,0,0,0
1579894825187.5,42,27,57,0,0,0,0,0
1579894825218.75,8,12,44,0,0,0,0,0
1579894825250,58,18,61,0,0,0,0,0
1579894825281.25,37,23,42,0,0,0,0,0
1579894825312.5,39,28,40,0,0,0,0,0
1579894825343.75,40,28,41,0,0,0,0,0
1579894825375,39,27,48,0,0,0,0,0
1579894825406.25,38,22,52,0,0,0,0,0
1579894825437.5,37,24,51,0,0,0,0,0
1579894825468.75,41,26,45,0,0,0,0,0
1579894825500,36,24,43,0,0,0,0,0
1579894825531.25,40,25,48,0,0,0,0,0
1579894825562.5,37,25,51,0,0,0,0,0
1579894825593.75,45,32,57,0,0,0,0,0
1579894825625,45,26,54,0,0,0,0,0
1579894825656.25,44,29,48,0,0,0,0,0
1579894825687.5,33,29,46,0,0,0,0,0
1579894825718.75,19,37,47,0,0,0,0,0
1579894825750,27,35,51,0,0,0,0,0
1579894825781.25,30,36,50,0,0,0,0,0
1579894825812.5,24,38,48,0,0,0,0,0
1579894825843.75,24,41,45,0,0,0,0,0
1579894825875,24,41,44,0,0,0,0,0
1579894825906.25,19,42,40,0,0,0,0,0
1579894825937.5,17,43,39,0,0,0,0,0
1579894825968.75,21,44,42,0,0,0,0,0
1579894826000,4,48,38,0,0,0,0,0
1579894826031.25,12,60,43,0,0,0,0,0
1579894826062.5,19,60,44,0,0,0,0,0
1579894826093.75,8,62,30,0,0,0,0,0
1579894826125,10,59,31,0,0,0,0,0
1579894826156.25,12,55,30,0,0,0,0,0
1579894826187.5,21,47,28,0,0,0,0,0
1579894826218.75,17,44,19,0,0,0,0,0
1579894826250,17,41,22,0,0,0,0,0
1579894826281.25,26,42,31,0,0,0,0,0
1579894826312.5,24,45,31,0,0,0,0,0
1579894826343.75,25,50,29,0,0,0,0,0
1579894826375,31,53,31,0,0,0,0,0
1579894826406.25,26,57,34,0,0,0,0,0
1579894826437.5,43,61,40,0,0,0,0,0
1579894826468.75,38,59,51,0,0,0,0,0
1579894826500,41,59,49,0,0,0,0,0
1579894826531.25,30,45,33,0,0,0,0,0
1579894826562.5,24,34,33,0,0,0,0,0
1579894826593.75,17,39,32,0,0,0,0,0
1579894826625,11,32,29,0,0,0,0,0
1579894826656.25,20,29,36,0,0,0,0,0
1579894826687.5,18,34,36,0,0,0,0,0
1579894826718.75,21,49,36,0,0,0,0,0
1579894826750,15,53,36,0,0,0,0,0
1579894826781.25,8,55,37,0,0,0,0,0
1579894826812.5,-6,48,38,0,0,0,0,0
1579894826843.75,-15,44,43,0,0,0,0,0
1579894826875,-12,43,49,0,0,0,0,0
1579894826906.25,-2,45,49,0,0,0,0,0
1579894826937.5,-5,46,45,0,0,0,0,0
1579894826968.75,2,46,45,0,0,0,0,0
1579894827000,-2,54,38,0,0,0,0,0
1579894827031.25,5,53,41,0,0,0,0,0
1579894827062.5,0,55,38,0,0,0,0,0
1579894827093.75,-10,51,42,0,0,0,0,0
1579894827125,1,53,44,0,0,0,0,0
1579894827156.25,-2,49,43,0,0,0,0,0
1579894827187.5,1,55,39,0,0,0,0,0
1579894827218.75,0,54,37,0,0,0,0,0
1579894827250,0,57,32,0,0,0,0,0
1579894827281.25,-1,53,37,0,0,0,0,0
1579894827312.5,-4,51,37,0,0,0,0,0
1579894827343.75,-4,51,40,0,0,0,0,0
1579894827375,-4,54,39,0,0,0,0,0
1579894827406.25,-3,55,38,0,0,0,0,0
1579894827437.5,-2,57,34,0,0,0,0,0
1579894827468.75,1,54,36,0,0,0,0,0
1579894827500,4,60,38,0,0,0,0,0
1579894827531.25,4,56,39,0,0,0,0,0
1579894827562.5,0,56,38,0,0,0,0,0
1579894827593.75,-4,53,36,0,0,0,0,0
1579894827625,-6,53,37,0,0,0,0,0
1579894827656.25,-3,52,38,0,0,0,0,0
1579894827687.5,-1,51,38,0,0,0,0,0
1579894827718.75,-1,52,38,0,0,0,0,0
1579894827750,0,52,38,0,0,0,0,0
1579894827781.25,-1,51,39,0,0,0,0,0
1579894827812.5,-1,53,40,0,0,0,0,0
1579894827843.75,0,54,40,0,0,0,0,0
1579894827875,-1,52,38,0,0,0,0,0
1579894827906.25,1,52,40,0,0,0,0,0
1579894827937.5,3,51,42,0,0,0,0,0
1579894827968.75,0,51,40,0,0,0,0,0
1579894828000,0,48,41,0,0,0,0,0
1579894828031.25,-1,47,42,0,0,0,0,0
1579894828062.5,-1,51,44,0,0,0,0,0
1579894828093.75,2,46,49,0,0,0,0,0
1579894828125,11,44,49,0,0,0,0,0
1579894828156.25,6,48,45,0,0,0,0,0
1579894828187.5,4,48,42,0,0,0,0,0
1579894828218.75,5,46,44,0,0,0,0,0
1579894828250,6,45,42,0,0,0,0,0
1579894828281.25,4,46,44,0,0,0,0,0
1579894828312.5,5,47,43,0,0,0,0,0
1579894828343.75,7,52,45,0,0,0,0,0
1579894828375,1,48,38,0,0,0,0,0
1579894828406.25,-11,47,38,0,0,0,0,0
1579894828437.5,6,46,42,0,0,0,0,0
1579894828468.75,11,41,43,0,0,0,0,0
1579894828500,24,46,49,0,0,0,0,0
1579894828531.25,21,47,47,0,0,0,0,0
1579894828562.5,19,45,48,0,0,0,0,0
1579894828593.75,16,46,49,0,0,0,0,0
1579894828625,24,47,48,0,0,0,0,0
1579894828656.25,28,46,54,0,0,0,0,0
1579894828687.5,36,38,59,0,0,0,0,0
1579894828718.75,24,32,47,0,0,0,0,0
1579894828750,17,34,47,0,0,0,0,0
1579894828781.25,11,41,46,0,0,0,0,0
1579894828812.5,14,41,42,0,0,0,0,0
1579894828843.75,18,39,42,0,0,0,0,0
1579894828875,23,36,49,0,0,0,0,0
1579894828906.25,18,36,49,0,0,0,0,0
1579894828937.5,21,38,52,0,0,0,0,0
1579894828968.75,15,38,51,0,0,0,0,0
1579894829000,19,37,49,0,0,0,0,0
1579894829031.25,18,35,41,0,0,0,0,0
1579894829062.5,18,38,33,0,0,0,0,0
1579894829093.75,22,43,34,0,0,0,0,0
1579894829125,11,45,37,0,0,0,0,0
1579894829156.25,30,51,43,0,0,0,0,0
1579894829187.5,29,49,39,0,0,0,0,0
1579894829218.75,31,50,26,0,0,0,0,0
1579894829250,36,50,30,0,0,0,0,0
1579894829281.25,31,54,28,0,0,0,0,0
1579894829312.5,36,56,20,0,0,0,0,0
1579894829343.75,33,57,4,0,0,0,0,0
1579894829375,33,55,7,0,0,0,0,0
1579894829406.25,31,54,11,0,0,0,0,0
1579894829437.5,27,54,9,0,0,0,0,0
1579894829468.75,27,59,5,0,0,0,0,0
1579894829500,28,62,-5,0,0,0,0,0
1579894829531.25,30,58,0,0,0,0,0,0
1579894829562.5,29,56,-5,0,0,0,0,0
1579894829593.75,22,57,-12,0,0,0,0,0
1579894829625,24,58,-19,0,0,0,0,0
1579894829656.25,31,55,-15,0,0,0,0,0
1579894829687.5,27,51,-13,0,0,0,0,0
1579894829718.75,24,51,-18,0,0,0,0,0
1579894829750,24,54,-20,0,0,0,0,0
1579894829781.25,29,53,-17,0,0,0,0,0
1579894829812.5,29,52,-17,0,0,0,0,0
1579894829843.75,27,54,-19,0,0,0,0,0
1579894829875,30,54,-18,0,0,0,0,0
1579894829906.25,29,54,-18,0,0,0,0,0
1579894829937.5,31,53,-16,0,0,0,0,0
1579894829968.75,28,50,-12,0,0,0,0,0
1579894830000,28,48,-11,0,0,0,0,0
1579894830031.25,37,49,-16,0,0,0,0,0
1579894830062.5,31,52,-15,0,0,0,0,0
1579894830093.75,57,46,-1,0,0,0,0,0
1579894830125,33,49,-5,0,0,0,0,0
1579894830156.25,28,55,-8,0,0,0,0,0
1579894830187.5,31,49,-5,0,0,0,0,0
1579894830218.75,30,58,-3,0,0,0,0,0
1579894830250,34,62,2,0,0,0,0,0
1579894830281.25,32,57,-1,0,0,0,0,0
1579894830312.5,25,47,1,0,0,0,0,0
1579894830343.75,26,52,2,0,0,0,0,0
1579894830375,36,60,-2,0,0,0,0,0
1579894830406.25,40,58,-8,0,0,0,0,0
1579894830437.5,35,54,-4,0,0,0,0,0
1579894830468.75,36,50,-4,0,0,0,0,0
1579894830500,37,47,-6,0,0,0,0,0
1579894830531.25,36,49,-6,0,0,0,0,0
1579894830562.5,41,51,4,0,0,0,0,0
1579894830593.75,31,50,6,0,0,0,0,0
1579894830625,28,49,4,0,0,0,0,0
1579894830656.25,37,53,1,0,0,0,0,0
1579894830687.5,38,41,-2,0,0,0,0,0
1579894830718.75,32,31,-12,0,0,0,0,0
1579894830750,48,22,0,0,0,0,0,0
1579894830781.25,46,16,-9,0,0,0,0,0
1579894830812.5,53,19,-21,0,0,0,0,0
1579894830843.75,62,7,-29,0,0,0,0,0
1579894830875,65,28,-9,0,0,0,0,0
1579894830906.25,64,31,-14,0,0,0,0,0
1579894830937.5,75,27,16,0,0,0,0,0
1579894830968.75,76,31,-4,0,0,0,0,0
1579894831000,68,29,-5,0,0,0,0,0
1579894831031.25,65,16,-5,0,0,0,0,0
1579894831062.5,54,18,-7,0,0,0,0,0
1579894831093.75,53,13,-6,0,0,0,0,0
1579894831125,55,6,5,0,0,0,0,0
1579894831156.25,65,3,12,0,0,0,0,0
1579894831187.5,51,-3,13,0,0,0,0,0
1579894831218.75,35,-16,4,0,0,0,0,0
1579894831250,30,-16,3,0,0,0,0,0
1579894831281.25,43,-17,7,0,0,0,0,0
1579894831312.5,63,-38,16,0,0,0,0,0
1579894831343.75,77,-56,26,0,0,0,0,0
1579894831375,96,-62,30,0,0,0,0,0
1579894831406.25,87,-28,5,0,0,0,0,0
1579894831437.5,1,-66,-17,0,0,0,0,0
1579894831468.75,-32,-71,18,0,0,0,0,0
1579894831500,32,-40,19,0,0,0,0,0
1579894831531.25,39,-45,8,0,0,0,0,0
1579894831562.5,58,-53,26,0,0,0,0,0
1579894831593.75,49,-57,55,0,0,0,0,0
1579894831625,34,-56,54,0,0,0,0,0
1579894831656.25,21,-57,31,0,0,0,0,0
1579894831687.5,24,-57,19,0,0,0,0,0
1579894831718.75,19,-54,18,0,0,0,0,0
1579894831750,22,-50,19,0,0,0,0,0
1579894831781.25,31,-49,23,0,0,0,0,0
1579894831812.5,36,-52,23,0,0,0,0,0
1579894831843.75,40,-50,28,0,0,0,0,0
1579894831875,43,-49,32,0,0,0,0,0
1579894831906.25,38,-38,38,0,0,0,0,0
1579894831937.5,41,-31,43,0,0,0,0,0
1579894831968.75,41,-31,44,0,0,0,0,0
1579894832000,38,-33,44,0,0,0,0,0
1579894832031.25,26,-32,40,0,0,0,0,0
1579894832062.5,18,-28,42,0,0,0,0,0
1579894832093.75,34,-16,49,0,0,0,0,0
1579894832125,16,-13,37,0,0,0,0,0
1579894832156.25,31,-10,44,0,0,0,0,0
1579894832187.5,36,-3,47,0,0,0,0,0
1579894832218.75,31,-1,44,0,0,0,0,0
1579894832250,32,-4,42,0,0,0,0,0
1579894832281.25,36,-12,45,0,0,0,0,0
1579894832312.5,32,-18,44,0,0,0,0,0
1579894832343.75,32,-17,43,0,0,0,0,0
1579894832375,29,-23,47,0,0,0,0,0
1579894832406.25,31,-28,47,0,0,0,0,0
1579894832437.5,28,-37,45,0,0,0,0,0
1579894832468.75,36,-40,46,0,0,0,0,0
1579894832500,33,-45,44,0,0,0,0,0
1579894832531.25,33,-47,47,0,0,0,0,0
1579894832562.5,23,-39,50,0,0,0,0,0
1579894832593.75,20,-44,39,0,0,0,0,0
1579894832625,-8,-66,24,0,0,0,0,0
1579894832656.25,60,28,74,0,0,0,0,0
1579894832687.5,-19,-35,25,0,0,0,0,0
1579894832718.75,12,-47,27,0,0,0,0,0
1579894832750,28,-63,39,0,0,0,0,0
1579894832781.25,30,-62,41,0,0,0,0,0
1579894832812.5,24,-53,35,0,0,0,0,0
1579894832843.75,23,-68,21,0,0,0,0,0
1579894832875,10,-62,13,0,0,0,0,0
1579894832906.25,10,-60,16,0,0,0,0,0
1579894832937.5,33,-49,19,0,0,0,0,0
1579894832968.75,45,-49,22,0,0,0,0,0
1579894833000,45,-81,37,0,0,0,0,0
1579894833031.25,-78,-116,-38,0,0,0,0,0
1579894833062.5,87,-47,19,0,0,0,0,0
1579894833093.75,45,-42,4,0,0,0,0,0
1579894833125,38,-7,-18,0,0,0,0,0
1579894833156.25,39,7,-16,0,0,0,0,0
1579894833187.5,32,-2,-21,0,0,0,0,0
1579894833218.75,38,-24,-12,0,0,0,0,0
1579894833250,55,-72,-8,0,0,0,0,0
1579894833281.25,77,-60,2,0,0,0,0,0
1579894833312.5,98,-59,17,0,0,0,0,0
1579894833343.75,70,-44,11,0,0,0,0,0
1579894833375,28,-59,-6,0,0,0,0,0
1579894833406.25,-4,-69,0,0,0,0,0,0
1579894833437.5,-12,-52,24,0,0,0,0,0
1579894833468.75,20,-57,37,0,0,0,0,0
1579894833500,21,-54,42,0,0,0,0,0
1579894833531.25,12,-60,38,0,0,0,0,0
1579894833562.5,-14,-47,32,0,0,0,0,0
1579894833593.75,-3,-49,40,0,0,0,0,0
1579894833625,10,-57,46,0,0,0,0,0
1579894833656.25,11,-47,43,0,0,0,0,0
1579894833687.5,18,-46,42,0,0,0,0,0
1579894833718.75,27,-41,45,0,0,0,0,0
1579894833750,27,-37,39,0,0,0,0,0
1579894833781.25,27,-37,40,0,0,0,0,0
1579894833812.5,35,-33,39,0,0,0,0,0
1579894833843.75,28,-35,40,0,0,0,0,0
1579894833875,23,-37,39,0,0,0,0,0
1579894833906.25,25,-36,40,0,0,0,0,0
1579894833937.5,28,-37,42,0,0,0,0,0
1579894833968.75,35,-36,50,0,0,0,0,0
1579894834000,36,-38,50,0,0,0,0,0
1579894834031.25,32,-36,47,0,0,0,0,0
1579894834062.5,32,-36,46,0,0,0,0,0
1579894834093.75,25,-38,45,0,0,0,0,0
1579894834125,27,-36,46,0,0,0,0,0
1579894834156.25,31,-33,41,0,0,0,0,0
1579894834187.5,32,-39,38,0,0,0,0,0
1579894834218.75,35,-33,39,0,0,0,0,0
1579894834250,39,-38,39,0,0,0,0,0
1579894834281.25,45,-30,41,0,0,0,0,0
1579894834312.5,45,-32,38,0,0,0,0,0
1579894834343.75,39,-30,35,0,0,0,0,0
1579894834375,40,-26,33,0,0,0,0,0
1579894834406.25,47,-29,45,0,0,0,0,0
1579894834437.5,57,-40,38,0,0,0,0,0
1579894834468.75,48,-30,31,0,0,0,0,0
1579894834500,57,-18,23,0,0,0,0,0
1579894834531.25,60,-13,29,0,0,0,0,0
1579894834562.5,56,-17,27,0,0,0,0,0
1579894834593.75,48,-18,24,0,0,0,0,0
1579894834625,49,-18,24,0,0,0,0,0
1579894834656.25,50,-16,24,0,0,0,0,0
1579894834687.5,46,-17,21,0,0,0,0,0
1579894834718.75,47,-15,22,0,0,0,0,0
1579894834750,47,-7,41,0,0,0,0,0
1579894834781.25,64,-7,25,0,0,0,0,0
1579894834812.5,63,-5,21,0,0,0,0,0
1579894834843.75,57,-8,24,0,0,0,0,0
1579894834875,57,-10,25,0,0,0,0,0
1579894834906.25,62,-10,26,0,0,0,0,0
1579894834937.5,69,-3,25,0,0,0,0,0
1579894834968.75,65,-4,25,0,0,0,0,0
1579894835000,72,-4,35,0,0,0,0,0
1579894835031.25,59,-13,31,0,0,0,0,0
1579894835062.5,63,-16,23,0,0,0,0,0
1579894835093.75,56,-22,17,0,0,0,0,0
1579894835125,33,-13,6,0,0,0,0,0
1579894835156.25,49,-6,23,0,0,0,0,0
1579894835187.5,40,-9,26,0,0,0,0,0
1579894835218.75,34,3,24,0,0,0,0,0
1579894835250,38,2,37,0,0,0,0,0
1579894835281.25,42,-2,43,0,0,0,0,0
1579894835312.5,51,-7,48,0,0,0,0,0
1579894835343.75,54,-16,38,0,0,0,0,0
1579894835375,58,-16,38,0,0,0,0,0
1579894835406.25,57,-16,37,0,0,0,0,0
1579894835437.5,49,-11,25,0,0,0,0,0
1579894835468.75,53,-41,24,0,0,0,0,0
1579894835500,55,-15,31,0,0,0,0,0
1579894835531.25,47,-14,31,0,0,0,0,0
1579894835562.5,45,-17,30,0,0,0,0,0
1579894835593.75,35,-28,30,0,0,0,0,0
1579894835625,31,-28,40,0,0,0,0,0
1579894835656.25,32,-26,40,0,0,0,0,0
1579894835687.5,35,-26,23,0,0,0,0,0
1579894835718.75,28,-44,17,0,0,0,0,0
1579894835750,34,-49,14,0,0,0,0,0
1579894835781.25,53,-59,23,0,0,0,0,0
1579894835812.5,41,-77,31,0,0,0,0,0
1579894835843.75,28,-79,27,0,0,0,0,0
1579894835875,10,-79,12,0,0,0,0,0
1579894835906.25,25,-69,10,0,0,0,0,0
1579894835937.5,31,-63,12,0,0,0,0,0
1579894835968.75,36,-61,18,0,0,0,0,0
1579894836000,40,-53,30,0,0,0,0,0
1579894836031.25,36,-53,33,0,0,0,0,0
1579894836062.5,27,-55,34,0,0,0,0,0
1579894836093.75,25,-58,36,0,0,0,0,0
1579894836125,26,-62,39,0,0,0,0,0
1579894836156.25,9,-75,23,0,0,0,0,0
1579894836187.5,-11,-81,11,0,0,0,0,0
1579894836218.75,-21,-71,0,0,0,0,0,0
1579894836250,-15,-62,7,0,0,0,0,0
1579894836281.25,-10,-59,7,0,0,0,0,0
1579894836312.5,11,-48,10,0,0,0,0,0
1579894836343.75,9,-46,8,0,0,0,0,0
1579894836375,16,-48,14,0,0,0,0,0
1579894836406.25,26,-51,21,0,0,0,0,0
1579894836437.5,29,-48,33,0,0,0,0,0
1579894836468.75,35,-50,35,0,0,0,0,0
1579894836500,11,-48,23,0,0,0,0,0
1579894836531.25,32,-70,21,0,0,0,0,0
1579894836562.5,18,-66,13,0,0,0,0,0
1579894836593.75,44,-59,22,0,0,0,0,0
1579894836625,67,-55,19,0,0,0,0,0
1579894836656.25,76,-75,1,0,0,0,0,0
1579894836687.5,77,-79,8,0,0,0,0,0
1579894836718.75,79,-73,22,0,0,0,0,0
1579894836750,61,-60,17,0,0,0,0,0
1579894836781.25,52,-35,22,0,0,0,0,0
1579894836812.5,48,-30,22,0,0,0,0,0
1579894836843.75,34,-23,16,0,0,0,0,0
1579894836875,36,-2,23,0,0,0,0,0
1579894836906.25,40,4,26,0,0,0,0,0
1579894836937.5,34,4,26,0,0,0,0,0
1579894836968.75,30,9,32,0,0,0,0,0
1579894837000,28,13,34,0,0,0,0,0
1579894837031.25,27,19,39,0,0,0,0,0
1579894837062.5,27,23,42,0,0,0,0,0
1579894837093.75,31,26,44,0,0,0,0,0
1579894837125,36,27,49,0,0,0,0,0
1579894837156.25,39,29,54,0,0,0,0,0
1579894837187.5,38,28,56,0,0,0,0,0
1579894837218.75,40,18,51,0,0,0,0,0
1579894837250,40,16,49,0,0,0,0,0
1579894837281.25,33,12,43,0,0,0,0,0
1579894837312.5,35,15,44,0,0,0,0,0
1579894837343.75,36,18,43,0,0,0,0,0
1579894837375,37,15,31,0,0,0,0,0
1579894837406.25,45,14,30,0,0,0,0,0
1579894837437.5,48,15,28,0,0,0,0,0
1579894837468.75,52,19,31,0,0,0,0,0
1579894837500,54,28,37,0,0,0,0,0
1579894837531.25,50,32,37,0,0,0,0,0
1579894837562.5,56,31,47,0,0,0,0,0
1579894837593.75,61,27,58,0,0,0,0,0
1579894837625,65,29,61,0,0,0,0,0
1579894837656.25,20,-29,41,0,0,0,0,0
1579894837687.5,60,25,28,0,0,0,0,0
1579894837718.75,43,11,10,0,0,0,0,0
1579894837750,37,5,37,0,0,0,0,0
1579894837781.25,37,23,42,0,0,0,0,0
1579894837812.5,43,34,39,0,0,0,0,0
1579894837843.75,46,21,33,0,0,0,0,0
1579894837875,51,10,39,0,0,0,0,0
1579894837906.25,57,16,30,0,0,0,0,0
1579894837937.5,61,10,21,0,0,0,0,0
1579894837968.75,74,1,33,0,0,0,0,0
1579894838000,62,0,31,0,0,0,0,0
1579894838031.25,64,0,42,0,0,0,0,0
1579894838062.5,73,1,49,0,0,0,0,0
1579894838093.75,59,4,40,0,0,0,0,0
1579894838125,51,8,24,0,0,0,0,0
1579894838156.25,55,5,22,0,0,0,0,0
1579894838187.5,67,-1,16,0,0,0,0,0
1579894838218.75,68,8,12,0,0,0,0,0
1579894838250,62,12,13,0,0,0,0,0
1579894838281.25,53,13,18,0,0,0,0,0
1579894838312.5,56,14,16,0,0,0,0,0
1579894838343.75,58,17,17,0,0,0,0,0
1579894838375,55,13,20,0,0,0,0,0
1579894838406.25,53,12,21,0,0,0,0,0
1579894838437.5,54,8,22,0,0,0,0,0
1579894838468.75,56,10,28,0,0,0,0,0
1579894838500,57,17,24,0,0,0,0,0
1579894838531.25,60,18,23,0,0,0,0,0
1579894838562.5,63,8,32,0,0,0,0,0
1579894838593.75,57,9,27,0,0,0,0,0
1579894838625,59,9,24,0,0,0,0,0
1579894838656.25,57,11,24,0,0,0,0,0
1579894838687.5,57,12,24,0,0,0,0,0
1579894838718.75,62,12,23,0,0,0,0,0
1579894838750,60,17,28,0,0,0,0,0
1579894838781.25,55,19,39,0,0,0,0,0
1579894838812.5,53,19,37,0,0,0,0,0
1579894838843.75,45,25,23,0,0,0,0,0
1579894838875,39,22,21,0,0,0,0,0
1579894838906.25,42,14,20,0,0,0,0,0
1579894838937.5,60,8,27,0,0,0,0,0
1579894838968.75,61,7,29,0,0,0,0,0
1579894839000,53,3,31,0,0,0,0,0
1579894839031.25,47,6,33,0,0,0,0,0
1579894839062.5,45,9,32,0,0,0,0,0
1579894839093.75,56,17,32,0,0,0,0,0
1579894839125,63,27,29,0,0,0,0,0
1579894839156.25,63,31,28,0,0,0,0,0
1579894839187.5,63,29,31,0,0,0,0,0
1579894839218.75,55,13,42,0,0,0,0,0
1579894839250,49,8,43,0,0,0,0,0
1579894839281.25,54,-6,42,0,0,0,0,0
1579894839312.5,58,-5,40,0,0,0,0,0
1579894839343.75,44,1,24,0,0,0,0,0
1579894839375,36,-30,22,0,0,0,0,0
1579894839406.25,46,-20,29,0,0,0,0,0
1579894839437.5,47,-15,33,0,0,0,0,0
1579894839468.75,48,-10,43,0,0,0,0,0
1579894839500,55,-7,48,0,0,0,0,0
1579894839531.25,56,7,39,0,0,0,0,0
1579894839562.5,52,4,27,0,0,0,0,0
1579894839593.75,50,3,19,0,0,0,0,0
1579894839625,61,3,19,0,0,0,0,0
1579894839656.25,58,0,21,0,0,0,0,0
1579894839687.5,60,-5,17,0,0,0,0,0
1579894839718.75,68,-8,16,0,0,0,0,0
1579894839750,63,-5,12,0,0,0,0,0
1579894839781.25,61,0,8,0,0,0,0,0
1579894839812.5,63,23,9,0,0,0,0,0
1579894839843.75,70,20,9,0,0,0,0,0
1579894839875,66,14,4,0,0,0,0,0
1579894839906.25,69,13,5,0,0,0,0,0
1579894839937.5,68,11,17,0,0,0,0,0
1579894839968.75,62,10,20,0,0,0,0,0
1579894840000,61,3,29,0,0,0,0,0
1579894840031.25,62,-2,33,0,0,0,0,0
1579894840062.5,58,-11,34,0,0,0,0,0
1579894840093.75,64,-27,19,0,0,0,0,0
1579894840125,67,-39,15,0,0,0,0,0
1579894840156.25,76,-12,18,0,0,0,0,0
1579894840187.5,54,-9,8,0,0,0,0,0
1579894840218.75,48,-13,1,0,0,0,0,0
1579894840250,47,-5,-7,0,0,0,0,0
1579894840281.25,52,-1,-6,0,0,0,0,0
1579894840312.5,53,-1,-2,0,0,0,0,0
1579894840343.75,53,0,4,0,0,0,0,0
1579894840375,62,-13,13,0,0,0,0,0
1579894840406.25,69,-19,16,0,0,0,0,0
1579894840437.5,66,-14,23,0,0,0,0,0
1579894840468.75,63,-15,10,0,0,0,0,0
1579894840500,69,-18,8,0,0,0,0,0
1579894840531.25,66,-20,7,0,0,0,0,0
1579894840562.5,60,-17,8,0,0,0,0,0
1579894840593.75,59,-14,8,0,0,0,0,0
1579894840625,58,-9,5,0,0,0,0,0
1579894840656.25,47,-11,4,0,0,0,0,0
1579894840687.5,53,-9,5,0,0,0,0,0
1579894840718.75,63,-14,0,0,0,0,0,0
1579894840750,69,-23,-2,0,0,0,0,0
1579894840781.25,72,-30,-3,0,0,0,0,0
1579894840812.5,48,-22,-3,0,0,0,0,0
1579894840843.75,52,-26,-4,0,0,0,0,0
1579894840875,82,-43,0,0,0,0,0,0
1579894840906.25,62,-51,-1,0,0,0,0,0
1579894840937.5,48,-43,5,0,0,0,0,0
1579894840968.75,32,-21,15,0,0,0,0,0
1579894841000,40,-12,24,0,0,0,0,0
1579894841031.25,45,-14,24,0,0,0,0,0
1579894841062.5,46,-21,17,0,0,0,0,0
1579894841093.75,54,-27,17,0,0,0,0,0
1579894841125,59,-28,19,0,0,0,0,0
1579894841156.25,67,-28,27,0,0,0,0,0
1579894841187.5,70,-24,35,0,0,0,0,0
1579894841218.75,66,-21,37,0,0,0,0,0
1579894841250,50,-19,37,0,0,0,0,0
1579894841281.25,42,-19,37,0,0,0,0,0
1579894841312.5,43,-20,38,0,0,0,0,0
1579894841343.75,49,-22,35,0,0,0,0,0
1579894841375,66,-33,39,0,0,0,0,0
1579894841406.25,66,-31,41,0,0,0,0,0
1579894841437.5,45,-17,34,0,0,0,0,0
1579894841468.75,40,-15,29,0,0,0,0,0
1579894841500,32,-29,16,0,0,0,0,0
1579894841531.25,36,-39,9,0,0,0,0,0
1579894841562.5,40,-40,13,0,0,0,0,0
1579894841593.75,47,-39,14,0,0,0,0,0
1579894841625,39,-37,17,0,0,0,0,0
1579894841656.25,40,-34,20,0,0,0,0,0
1579894841687.5,40,-29,26,0,0,0,0,0
1579894841718.75,38,-29,26,0,0,0,0,0
1579894841750,38,-29,28,0,0,0,0,0
1579894841781.25,43,-29,33,0,0,0,0,0
1579894841812.5,48,-32,36,0,0,0,0,0
1579894841843.75,49,-35,36,0,0,0,0,0
1579894841875,46,-44,41,0,0,0,0,0
1579894841906.25,68,-69,23,0,0,0,0,0
1579894841937.5,81,-85,23,0,0,0,0,0
1579894841968.75,58,-68,14,0,0,0,0,0
1579894842000,39,-53,2,0,0,0,0,0
1579894842031.25,33,-47,3,0,0,0,0,0
1579894842062.5,31,-33,4,0,0,0,0,0
1579894842093.75,36,-25,4,0,0,0,0,0
1579894842125,45,-24,6,0,0,0,0,0
1579894842156.25,59,-31,9,0,0,0,0,0
1579894842187.5,63,-36,8,0,0,0,0,0
1579894842218.75,53,-48,0,0,0,0,0,0
1579894842250,49,-52,4,0,0,0,0,0
1579894842281.25,44,-53,6,0,0,0,0,0
1579894842312.5,37,-54,5,0,0,0,0,0
1579894842343.75,32,-59,7,0,0,0,0,0
1579894842375,32,-63,8,0,0,0,0,0
1579894842406.25,33,-57,13,0,0,0,0,0
1579894842437.5,36,-54,29,0,0,0,0,0
1579894842468.75,40,-48,42,0,0,0,0,0
1579894842500,1,-55,63,0,0,0,0,0
1579894842531.25,2,-41,21,0,0,0,0,0
1579894842562.5,29,-43,23,0,0,0,0,0
1579894842593.75,57,-36,26,0,0,0,0,0
1579894842625,45,-33,9,0,0,0,0,0
1579894842656.25,43,-34,7,0,0,0,0,0
1579894842687.5,38,-40,5,0,0,0,0,0
1579894842718.75,47,-45,9,0,0,0,0,0
1579894842750,48,-48,10,0,0,0,0,0
1579894842781.25,46,-53,9,0,0,0,0,0
1579894842812.5,42,-57,7,0,0,0,0,0
1579894842843.75,33,-61,6,0,0,0,0,0
1579894842875,20,-62,0,0,0,0,0,0
1579894842906.25,16,-58,2,0,0,0,0,0
1579894842937.5,31,-52,12,0,0,0,0,0
1579894842968.75,53,-73,7,0,0,0,0,0
1579894843000,34,-72,0,0,0,0,0,0
1579894843031.25,22,-72,-2,0,0,0,0,0
1579894843062.5,17,-74,-8,0,0,0,0,0
1579894843093.75,14,-70,-9,0,0,0,0,0
1579894843125,18,-50,-4,0,0,0,0,0
1579894843156.25,32,-42,7,0,0,0,0,0
1579894843187.5,35,-45,8,0,0,0,0,0
1579894843218.75,40,-54,10,0,0,0,0,0
1579894843250,33,-61,6,0,0,0,0,0
1579894843281.25,27,-59,2,0,0,0,0,0
1579894843312.5,25,-63,0,0,0,0,0,0
1579894843343.75,39,-63,10,0,0,0,0,0
1579894843375,51,-60,14,0,0,0,0,0
1579894843406.25,42,-63,11,0,0,0,0,0
1579894843437.5,33,-47,11,0,0,0,0,0
1579894843468.75,32,-46,12,0,0,0,0,0
1579894843500,16,-55,10,0,0,0,0,0
1579894843531.25,7,-59,6,0,0,0,0,0
1579894843562.5,12,-57,3,0,0,0,0,0
1579894843593.75,15,-60,3,0,0,0,0,0
1579894843625,19,-60,5,0,0,0,0,0
1579894843656.25,21,-55,9,0,0,0,0,0
1579894843687.5,19,-53,8,0,0,0,0,0
1579894843718.75,17,-56,8,0,0,0,0,0
1579894843750,14,-55,10,0,0,0,0,0
1579894843781.25,17,-59,8,0,0,0,0,0
1579894843812.5,19,-66,7,0,0,0,0,0
1579894843843.75,27,-76,5,0,0,0,0,0
1579894843875,25,-54,9,0,0,0,0,0
1579894843906.25,25,-51,9,0,0,0,0,0
1579894843937.5,17,-60,1,0,0,0,0,0
1579894843968.75,16,-64,-1,0,0,0,0,0
1579894844000,16,-66,-1,0,0,0,0,0
1579894844031.25,20,-64,0,0,0,0,0,0
1579894844062.5,20,-60,7,0,0,0,0,0
1579894844093.75,21,-55,9,0,0,0,0,0
1579894844125,27,-58,9,0,0,0,0,0
1579894844156.25,25,-56,9,0,0,0,0,0
1579894844187.5,23,-57,9,0,0,0,0,0
1579894844218.75,21,-59,1,0,0,0,0,0
1579894844250,21,-58,0,0,0,0,0,0
1579894844281.25,26,-57,2,0,0,0,0,0
1579894844312.5,29,-56,5,0,0,0,0,0
1579894844343.75,29,-55,6,0,0,0,0,0
1579894844375,28,-55,6,0,0,0,0,0
1579894844406.25,26,-55,5,0,0,0,0,0
1579894844437.5,26,-56,5,0,0,0,0,0
1579894844468.75,25,-55,5,0,0,0,0,0
1579894844500,26,-55,6,0,0,0,0,0
1579894844531.25,26,-57,6,0,0,0,0,0
1579894844562.5,29,-58,7,0,0,0,0,0
1579894844593.75,31,-60,9,0,0,0,0,0
1579894844625,32,-61,9,0,0,0,0,0
1579894844656.25,30,-63,10,0,0,0,0,0
1579894844687.5,21,-61,9,0,0,0,0,0
1579894844718.75,20,-61,10,0,0,0,0,0
1579894844750,21,-61,10,0,0,0,0,0
1579894844781.25,22,-59,10,0,0,0,0,0
1579894844812.5,21,-58,9,0,0,0,0,0
1579894844843.75,22,-60,8,0,0,0,0,0
1579894844875,20,-59,8,0,0,0,0,0
1579894844906.25,19,-58,7,0,0,0,0,0
1579894844937.5,19,-57,6,0,0,0,0,0
1579894844968.75,20,-58,6,0,0,0,0,0
1579894845000,20,-57,4,0,0,0,0,0
1579894845031.25,23,-54,5,0,0,0,0,0
1579894845062.5,25,-54,6,0,0,0,0,0
1579894845093.75,28,-56,7,0,0,0,0,0
1579894845125,32,-59,9,0,0,0,0,0
1579894845156.25,33,-62,9,0,0,0,0,0
1579894845187.5,30,-57,9,0,0,0,0,0
1579894845218.75,30,-53,9,0,0,0,0,0
1579894845250,33,-53,8,0,0,0,0,0
1579894845281.25,34,-56,4,0,0,0,0,0
1579894845312.5,29,-59,2,0,0,0,0,0
1579894845343.75,29,-61,4,0,0,0,0,0
1579894845375,30,-68,13,0,0,0,0,0
1579894845406.25,8,-64,3,0,0,0,0,0
1579894845437.5,6,-62,-4,0,0,0,0,0
1579894845468.75,17,-54,8,0,0,0,0,0
1579894845500,31,-59,13,0,0,0,0,0
1579894845531.25,56,-55,25,0,0,0,0,0
1579894845562.5,47,-50,29,0,0,0,0,0
1579894845593.75,39,-45,23,0,0,0,0,0
1579894845625,47,-38,18,0,0,0,0,0
1579894845656.25,62,-29,19,0,0,0,0,0
1579894845687.5,61,-27,14,0,0,0,0,0
1579894845718.75,61,-27,4,0,0,0,0,0
1579894845750,66,-26,3,0,0,0,0,0
1579894845781.25,65,-23,1,0,0,0,0,0
1579894845812.5,62,-17,-1,0,0,0,0,0
1579894845843.75,66,-13,5,0,0,0,0,0
1579894845875,68,-7,6,0,0,0,0,0
1579894845906.25,70,-3,8,0,0,0,0,0
1579894845937.5,62,2,19,0,0,0,0,0
1579894845968.75,50,4,15,0,0,0,0,0
1579894846000,37,-7,17,0,0,0,0,0
1579894846031.25,48,5,23,0,0,0,0,0
1579894846062.5,51,9,23,0,0,0,0,0
1579894846093.75,44,10,17,0,0,0,0,0
1579894846125,41,12,11,0,0,0,0,0
1579894846156.25,38,12,16,0,0,0,0,0
1579894846187.5,47,13,9,0,0,0,0,0
1579894846218.75,52,13,7,0,0,0,0,0
1579894846250,58,14,8,0,0,0,0,0
1579894846281.25,56,15,9,0,0,0,0,0
1579894846312.5,58,16,10,0,0,0,0,0
1579894846343.75,59,17,11,0,0,0,0,0
1579894846375,51,20,5,0,0,0,0,0
1579894846406.25,54,15,6,0,0,0,0,0
1579894846437.5,74,22,14,0,0,0,0,0
1579894846468.75,71,18,6,0,0,0,0,0
1579894846500,60,17,-1,0,0,0,0,0
1579894846531.25,59,13,-4,0,0,0,0,0
1579894846562.5,60,20,-6,0,0,0,0,0
1579894846593.75,66,20,-6,0,0,0,0,0
1579894846625,62,21,-4,0,0,0,0,0
1579894846656.25,72,9,19,0,0,0,0,0
1579894846687.5,72,13,18,0,0,0,0,0
1579894846718.75,60,20,7,0,0,0,0,0
1579894846750,60,28,0,0,0,0,0,0
1579894846781.25,72,30,4,0,0,0,0,0
1579894846812.5,64,30,1,0,0,0,0,0
1579894846843.75,58,32,4,0,0,0,0,0
1579894846875,52,31,4,0,0,0,0,0
1579894846906.25,45,30,0,0,0,0,0,0
1579894846937.5,48,29,3,0,0,0,0,0
1579894846968.75,50,28,4,0,0,0,0,0
1579894847000,49,28,5,0,0,0,0,0
1579894847031.25,49,29,6,0,0,0,0,0
1579894847062.5,59,30,18,0,0,0,0,0
1579894847093.75,51,25,15,0,0,0,0,0
1579894847125,61,27,24,0,0,0,0,0
1579894847156.25,65,33,24,0,0,0,0,0
1579894847187.5,51,39,13,0,0,0,0,0
1579894847218.75,48,35,14,0,0,0,0,0
1579894847250,52,25,16,0,0,0,0,0
1579894847281.25,44,19,12,0,0,0,0,0
1579894847312.5,40,18,11,0,0,0,0,0
1579894847343.75,41,18,14,0,0,0,0,0
1579894847375,51,26,18,0,0,0,0,0
1579894847406.25,52,28,18,0,0,0,0,0
1579894847437.5,58,24,19,0,0,0,0,0
1579894847468.75,57,19,19,0,0,0,0,0
1579894847500,54,18,19,0,0,0,0,0
1579894847531.25,58,18,21,0,0,0,0,0
1579894847562.5,64,20,22,0,0,0,0,0
1579894847593.75,65,19,23,0,0,0,0,0
1579894847625,58,17,21,0,0,0,0,0
1579894847656.25,55,17,15,0,0,0,0,0
1579894847687.5,55,17,13,0,0,0,0,0
1579894847718.75,60,22,7,0,0,0,0,0
1579894847750,63,29,5,0,0,0,0,0
1579894847781.25,61,37,-1,0,0,0,0,0
1579894847812.5,59,40,-6,0,0,0,0,0
1579894847843.75,61,38,-6,0,0,0,0,0
1579894847875,52,38,-10,0,0,0,0,0
1579894847906.25,47,32,-4,0,0,0,0,0
1579894847937.5,47,31,-3,0,0,0,0,0
1579894847968.75,46,34,-6,0,0,0,0,0
1579894848000,47,37,-3,0,0,0,0,0
1579894848031.25,47,37,-2,0,0,0,0,0
1579894848062.5,46,38,-4,0,0,0,0,0
1579894848093.75,45,36,-5,0,0,0,0,0
1579894848125,46,36,-6,0,0,0,0,0
1579894848156.25,49,37,-7,0,0,0,0,0
1579894848187.5,50,38,-10,0,0,0,0,0
1579894848218.75,50,38,-12,0,0,0,0,0
1579894848250,49,41,-17,0,0,0,0,0
1579894848281.25,53,42,-17,0,0,0,0,0
1579894848312.5,54,38,-14,0,0,0,0,0
1579894848343.75,55,24,-11,0,0,0,0,0
1579894848375,49,17,-12,0,0,0,0,0
1579894848406.25,51,2,-2,0,0,0,0,0
1579894848437.5,67,2,15,0,0,0,0,0
1579894848468.75,80,4,26,0,0,0,0,0
1579894848500,80,4,30,0,0,0,0,0
1579894848531.25,63,3,19,0,0,0,0,0
1579894848562.5,64,7,20,0,0,0,0,0
1579894848593.75,64,8,24,0,0,0,0,0
1579894848625,64,5,24,0,0,0,0,0
1579894848656.25,64,6,22,0,0,0,0,0
1579894848687.5,57,11,15,0,0,0,0,0
1579894848718.75,55,14,13,0,0,0,0,0
1579894848750,58,13,20,0,0,0,0,0
1579894848781.25,50,12,14,0,0,0,0,0
1579894848812.5,51,26,-7,0,0,0,0,0
1579894848843.75,60,25,-6,0,0,0,0,0
1579894848875,61,18,7,0,0,0,0,0
1579894848906.25,77,32,8,0,0,0,0,0
1579894848937.5,72,27,12,0,0,0,0,0
1579894848968.75,58,15,5,0,0,0,0,0
1579894849000,66,16,5,0,0,0,0,0
1579894849031.25,65,17,2,0,0,0,0,0
1579894849062.5,59,20,-3,0,0,0,0,0
1579894849093.75,59,21,-5,0,0,0,0,0
1579894849125,62,24,-6,0,0,0,0,0
1579894849156.25,52,28,-16,0,0,0,0,0
1579894849187.5,50,29,-22,0,0,0,0,0
1579894849218.75,53,28,-30,0,0,0,0,0
1579894849250,48,29,-29,0,0,0,0,0
1579894849281.25,48,32,-24,0,0,0,0,0
1579894849312.5,54,32,-16,0,0,0,0,0
1579894849343.75,55,29,-14,0,0,0,0,0
1579894849375,56,29,-16,0,0,0,0,0
1579894849406.25,55,26,-15,0,0,0,0,0
1579894849437.5,56,21,-9,0,0,0,0,0
1579894849468.75,58,18,-8,0,0,0,0,0
1579894849500,52,19,-8,0,0,0,0,0
1579894849531.25,49,20,-5,0,0,0,0,0
1579894849562.5,54,19,-9,0,0,0,0,0
1579894849593.75,53,27,-19,0,0,0,0,0
1579894849625,54,23,-23,0,0,0,0,0
1579894849656.25,56,22,-30,0,0,0,0,0
1579894849687.5,52,16,-28,0,0,0,0,0
1579894849718.75,45,20,-34,0,0,0,0,0
1579894849750,45,18,-35,0,0,0,0,0
1579894849781.25,43,19,-14,0,0,0,0,0
1579894849812.5,54,16,-18,0,0,0,0,0
1579894849843.75,51,12,-27,0,0,0,0,0
1579894849875,76,17,-14,0,0,0,0,0
1579894849906.25,77,19,-9,0,0,0,0,0
1579894849937.5,73,16,-3,0,0,0,0,0
1579894849968.75,65,17,-5,0,0,0,0,0
1579894850000,59,17,-10,0,0,0,0,0
1579894850031.25,52,15,-12,0,0,0,0,0
1579894850062.5,60,12,-10,0,0,0,0,0
1579894850093.75,62,10,-8,0,0,0,0,0
1579894850125,62,9,-7,0,0,0,0,0
1579894850156.25,62,5,-7,0,0,0,0,0
1579894850187.5,61,6,-8,0,0,0,0,0
1579894850218.75,66,6,-5,0,0,0,0,0
1579894850250,71,6,2,0,0,0,0,0
1579894850281.25,70,4,7,0,0,0,0,0
1579894850312.5,71,-3,13,0,0,0,0,0
1579894850343.75,52,0,9,0,0,0,0,0
1579894850375,51,-3,7,0,0,0,0,0
1579894850406.25,62,-8,10,0,0,0,0,0
1579894850437.5,63,-1,17,0,0,0,0,0
1579894850468.75,58,8,26,0,0,0,0,0
1579894850500,62,5,23,0,0,0,0,0
1579894850531.25,63,1,21,0,0,0,0,0
1579894850562.5,50,3,23,0,0,0,0,0
1579894850593.75,50,1,20,0,0,0,0,0
1579894850625,57,-3,20,0,0,0,0,0
1579894850656.25,58,-11,18,0,0,0,0,0
1579894850687.5,35,-2,15,0,0,0,0,0
1579894850718.75,44,-3,20,0,0,0,0,0
1579894850750,71,-7,30,0,0,0,0,0
1579894850781.25,65,-5,31,0,0,0,0,0
1579894850812.5,59,-4,31,0,0,0,0,0
1579894850843.75,53,-3,34,0,0,0,0,0
1579894850875,47,-1,33,0,0,0,0,0
1579894850906.25,43,0,33,0,0,0,0,0
1579894850937.5,46,6,37,0,0,0,0,0
1579894850968.75,52,1,35,0,0,0,0,0
1579894851000,53,-2,32,0,0,0,0,0
1579894851031.25,63,-10,30,0,0,0,0,0
1579894851062.5,63,-19,34,0,0,0,0,0
1579894851093.75,51,-21,29,0,0,0,0,0
1579894851125,25,-21,16,0,0,0,0,0
1579894851156.25,37,-17,22,0,0,0,0,0
1579894851187.5,82,-19,39,0,0,0,0,0
1579894851218.75,76,-27,35,0,0,0,0,0
1579894851250,67,-31,30,0,0,0,0,0
1579894851281.25,37,-30,25,0,0,0,0,0
1579894851312.5,34,-18,33,0,0,0,0,0
1579894851343.75,48,-14,37,0,0,0,0,0
1579894851375,66,-27,34,0,0,0,0,0
1579894851406.25,42,-6,37,0,0,0,0,0
1579894851437.5,46,-2,39,0,0,0,0,0
1579894851468.75,65,-11,30,0,0,0,0,0
1579894851500,40,-12,17,0,0,0,0,0
1579894851531.25,29,-15,12,0,0,0,0,0
1579894851562.5,44,-16,16,0,0,0,0,0
1579894851593.75,63,-12,24,0,0,0,0,0
1579894851625,64,-10,27,0,0,0,0,0
1579894851656.25,58,-8,32,0,0,0,0,0
1579894851687.5,64,-8,31,0,0,0,0,0
1579894851718.75,73,-8,27,0,0,0,0,0
1579894851750,68,-15,20,0,0,0,0,0
1579894851781.25,64,-20,20,0,0,0,0,0
1579894851812.5,54,-31,24,0,0,0,0,0
1579894851843.75,47,-33,20,0,0,0,0,0
1579894851875,45,-30,19,0,0,0,0,0
1579894851906.25,45,-31,18,0,0,0,0,0
1579894851937.5,58,-29,19,0,0,0,0,0
1579894851968.75,60,-26,17,0,0,0,0,0
1579894852000,62,-27,14,0,0,0,0,0
1579894852031.25,59,-28,15,0,0,0,0,0
1579894852062.5,53,-27,15,0,0,0,0,0
1579894852093.75,48,-22,19,0,0,0,0,0
1579894852125,55,-21,24,0,0,0,0,0
1579894852156.25,54,-22,26,0,0,0,0,0
1579894852187.5,52,-25,30,0,0,0,0,0
1579894852218.75,48,-27,31,0,0,0,0,0
1579894852250,48,-26,29,0,0,0,0,0
1579894852281.25,52,-23,26,0,0,0,0,0
1579894852312.5,54,-20,25,0,0,0,0,0
1579894852343.75,53,-20,25,0,0,0,0,0
1579894852375,55,-21,26,0,0,0,0,0
1579894852406.25,55,-23,25,0,0,0,0,0
1579894852437.5,53,-24,24,0,0,0,0,0
1579894852468.75,52,-25,25,0,0,0,0,0
1579894852500,51,-25,25,0,0,0,0,0
1579894852531.25,52,-23,24,0,0,0,0,0
1579894852562.5,53,-21,25,0,0,0,0,0
1579894852593.75,54,-20,25,0,0,0,0,0
1579894852625,55,-21,26,0,0,0,0,0
1579894852656.25,54,-22,26,0,0,0,0,0
1579894852687.5,54,-22,25,0,0,0,0,0
1579894852718.75,53,-23,24,0,0,0,0,0
1579894852750,53,-24,24,0,0,0,0,0
1579894852781.25,52,-24,24,0,0,0,0,0
1579894852812.5,53,-24,24,0,0,0,0,0
1579894852843.75,52,-24,24,0,0,0,0,0
1579894852875,54,-23,24,0,0,0,0,0
1579894852906.25,52,-23,24,0,0,0,0,0
1579894852937.5,54,-23,25,0,0,0,0,0
1579894852968.75,54,-23,25,0,0,0,0,0
1579894853000,54,-22,25,0,0,0,0,0
1579894853031.25,54,-22,24,0,0,0,0,0
1579894853062.5,53,-22,24,0,0,0,0,0
1579894853093.75,54,-21,24,0,0,0,0,0
1579894853125,53,-21,24,0,0,0,0,0
1579894853156.25,54,-21,24,0,0,0,0,0
1579894853187.5,54,-20,24,0,0,0,0,0
1579894853218.75,54,-20,24,0,0,0,0,0
1579894853250,54,-20,24,0,0,0,0,0
1579894853281.25,55,-20,24,0,0,0,0,0
1579894853312.5,55,-20,24,0,0,0,0,0
1579894853343.75,55,-20,24,0,0,0,0,0
1579894853375,54,-21,24,0,0,0,0,0
1579894853406.25,54,-21,24,0,0,0,0,0
1579894853437.5,54,-21,24,0,0,0,0,0
1579894853468.75,54,-21,24,0,0,0,0,0
1579894853500,54,-22,24,0,0,0,0,0
1579894853531.25,54,-22,24,0,0,0,0,0
1579894853562.5,53,-23,24,0,0,0,0,0
1579894853593.75,53,-23,24,0,0,0,0,0
1579894853625,53,-23,24,0,0,0,0,0
1579894853656.25,53,-24,24,0,0,0,0,0
1579894853687.5,53,-25,23,0,0,0,0,0
1579894853718.75,52,-25,23,0,0,0,0,0
1579894853750,53,-24,23,0,0,0,0,0
1579894853781.25,54,-24,24,0,0,0,0,0
1579894853812.5,53,-23,24,0,0,0,0,0
1579894853843.75,53,-23,24,0,0,0,0,0
1579894853875,53,-23,24,0,0,0,0,0
1579894853906.25,53,-23,24,0,0,0,0,0
1579894853937.5,53,-23,24,0,0,0,0,0
1579894853968.75,53,-23,24,0,0,0,0,0
1579894854000,53,-23,24,0,0,0,0,0
1579894854031.25,53,-23,24,0,0,0,0,0
1579894854062.5,53,-23,23,0,0,0,0,0
1579894854093.75,53,-24,23,0,0,0,0,0
1579894854125,53,-24,23,0,0,0,0,0
1579894854156.25,53,-24,23,0,0,0,0,0
1579894854187.5,54,-24,23,0,0,0,0,0
1579894854218.75,53,-24,23,0,0,0,0,0
1579894854250,53,-24,23,0,0,0,0,0
1579894854281.25,53,-25,23,0,0,0,0,0
1579894854312.5,53,-24,24,0,0,0,0,0
1579894854343.75,53,-25,23,0,0,0,0,0
1579894854375,53,-25,23,0,0,0,0,0
1579894854406.25,53,-25,23,0,0,0,0,0
1579894854437.5,52,-26,23,0,0,0,0,0
1579894854468.75,52,-26,23,0,0,0,0,0
1579894854500,52,-26,23,0,0,0,0,0
1579894854531.25,52,-26,23,0,0,0,0,0
1579894854562.5,52,-26,23,0,0,0,0,0
1579894854593.75,52,-26,23,0,0,0,0,0
1579894854625,53,-26,23,0,0,0,0,0
1579894854656.25,53,-26,23,0,0,0,0,0
1579894854687.5,53,-26,23,0,0,0,0,0
1579894854718.75,52,-26,23,0,0,0,0,0
1579894854750,52,-26,23,0,0,0,0,0
1579894854781.25,52,-26,23,0,0,0,0,0
1579894854812.5,52,-26,23,0,0,0,0,0
1579894854843.75,53,-26,23,0,0,0,0,0
1579894854875,53,-27,23,0,0,0,0,0
1579894854906.25,52,-27,23,0,0,0,0,0
1579894854937.5,53,-26,23,0,0,0,0,0
1579894854968.75,53,-27,23,0,0,0,0,0
1579894855000,54,-27,23,0,0,0,0,0
1579894855031.25,54,-26,25,0,0,0,0,0
1579894855062.5,54,-24,27,0,0,0,0,0
1579894855093.75,54,-27,27,0,0,0,0,0
1579894855125,53,-29,26,0,0,0,0,0
1579894855156.25,53,-36,27,0,0,0,0,0
1579894855187.5,54,-38,29,0,0,0,0,0
1579894855218.75,49,-36,30,0,0,0,0,0
1579894855250,36,-33,28,0,0,0,0,0
1579894855281.25,31,-32,25,0,0,0,0,0
1579894855312.5,37,-31,23,0,0,0,0,0
1579894855343.75,45,-37,22,0,0,0,0,0
1579894855375,38,-32,24,0,0,0,0,0
1579894855406.25,37,-24,30,0,0,0,0,0
1579894855437.5,61,-30,37,0,0,0,0,0
1579894855468.75,57,-29,32,0,0,0,0,0
1579894855500,33,-36,18,0,0,0,0,0
1579894855531.25,41,-38,21,0,0,0,0,0
1579894855562.5,44,-37,27,0,0,0,0,0
1579894855593.75,48,-31,36,0,0,0,0,0
1579894855625,51,-28,32,0,0,0,0,0
1579894855656.25,57,-30,29,0,0,0,0,0
1579894855687.5,58,-35,25,0,0,0,0,0
1579894855718.75,46,-37,30,0,0,0,0,0
1579894855750,41,-38,31,0,0,0,0,0
1579894855781.25,37,-41,28,0,0,0,0,0
1579894855812.5,35,-45,25,0,0,0,0,0
1579894855843.75,35,-45,24,0,0,0,0,0
1579894855875,40,-43,22,0,0,0,0,0
1579894855906.25,49,-34,20,0,0,0,0,0
1579894855937.5,52,-29,18,0,0,0,0,0
1579894855968.75,57,-25,15,0,0,0,0,0
1579894856000,62,-20,17,0,0,0,0,0
1579894856031.25,63,-18,18,0,0,0,0,0
1579894856062.5,58,-16,19,0,0,0,0,0
1579894856093.75,54,-16,17,0,0,0,0,0
1579894856125,47,-19,11,0,0,0,0,0
1579894856156.25,41,-26,5,0,0,0,0,0
1579894856187.5,43,-29,6,0,0,0,0,0
1579894856218.75,51,-44,12,0,0,0,0,0
1579894856250,49,-43,23,0,0,0,0,0
1579894856281.25,50,-46,25,0,0,0,0,0
1579894856312.5,52,-59,16,0,0,0,0,0
1579894856343.75,22,-60,-9,0,0,0,0,0
1579894856375,12,-61,-10,0,0,0,0,0
1579894856406.25,24,-65,5,0,0,0,0,0
1579894856437.5,48,-48,19,0,0,0,0,0
1579894856468.75,47,-48,19,0,0,0,0,0
1579894856500,40,-49,5,0,0,0,0,0
1579894856531.25,39,-49,3,0,0,0,0,0
1579894856562.5,38,-48,8,0,0,0,0,0
1579894856593.75,37,-50,10,0,0,0,0,0
1579894856625,34,-53,7,0,0,0,0,0
1579894856656.25,35,-53,6,0,0,0,0,0
1579894856687.5,37,-49,4,0,0,0,0,0
1579894856718.75,39,-48,4,0,0,0,0,0
1579894856750,44,-45,5,0,0,0,0,0
1579894856781.25,50,-43,13,0,0,0,0,0
1579894856812.5,55,-37,17,0,0,0,0,0
1579894856843.75,71,-34,15,0,0,0,0,0
1579894856875,74,-44,17,0,0,0,0,0
1579894856906.25,59,-45,11,0,0,0,0,0
1579894856937.5,45,-52,18,0,0,0,0,0
1579894856968.75,44,-49,21,0,0,0,0,0
1579894857000,55,-43,26,0,0,0,0,0
1579894857031.25,63,-36,28,0,0,0,0,0
1579894857062.5,52,-25,23,0,0,0,0,0
1579894857093.75,45,-15,24,0,0,0,0,0
1579894857125,36,2,27,0,0,0,0,0
1579894857156.25,38,7,31,0,0,0,0,0
1579894857187.5,38,5,31,0,0,0,0,0
1579894857218.75,37,0,33,0,0,0,0,0
1579894857250,44,-13,36,0,0,0,0,0
1579894857281.25,40,-13,37,0,0,0,0,0
1579894857312.5,37,-11,39,0,0,0,0,0
1579894857343.75,43,-18,43,0,0,0,0,0
1579894857375,45,-13,46,0,0,0,0,0
1579894857406.25,44,-9,47,0,0,0,0,0
1579894857437.5,45,-7,46,0,0,0,0,0
1579894857468.75,47,-6,40,0,0,0,0,0
1579894857500,51,-6,37,0,0,0,0,0
1579894857531.25,53,-6,35,0,0,0,0,0
1579894857562.5,50,-6,33,0,0,0,0,0
1579894857593.75,51,-4,38,0,0,0,0,0
1579894857625,54,-3,38,0,0,0,0,0
1579894857656.25,59,-2,38,0,0,0,0,0
1579894857687.5,53,-5,37,0,0,0,0,0
1579894857718.75,51,-6,37,0,0,0,0,0
1579894857750,52,-5,37,0,0,0,0,0
1579894857781.25,54,-6,35,0,0,0,0,0
1579894857812.5,53,-6,33,0,0,0,0,0
1579894857843.75,51,-9,30,0,0,0,0,0
1579894857875,48,-12,26,0,0,0,0,0
1579894857906.25,48,-13,26,0,0,0,0,0
1579894857937.5,51,-11,26,0,0,0,0,0
1579894857968.75,49,-12,28,0,0,0,0,0
1579894858000,47,-10,24,0,0,0,0,0
1579894858031.25,60,-14,26,0,0,0,0,0
1579894858062.5,55,-19,23,0,0,0,0,0
1579894858093.75,55,-26,21,0,0,0,0,0
1579894858125,49,-31,21,0,0,0,0,0
1579894858156.25,48,-34,20,0,0,0,0,0
1579894858187.5,48,-37,19,0,0,0,0,0
1579894858218.75,54,-37,20,0,0,0,0,0
1579894858250,55,-38,19,0,0,0,0,0
1579894858281.25,52,-40,17,0,0,0,0,0
1579894858312.5,50,-42,16,0,0,0,0,0
1579894858343.75,47,-42,13,0,0,0,0,0
1579894858375,46,-42,11,0,0,0,0,0
1579894858406.25,43,-44,8,0,0,0,0,0
1579894858437.5,42,-45,8,0,0,0,0,0
1579894858468.75,41,-48,7,0,0,0,0,0
1579894858500,38,-52,6,0,0,0,0,0
1579894858531.25,35,-54,5,0,0,0,0,0
1579894858562.5,33,-56,5,0,0,0,0,0
1579894858593.75,31,-57,4,0,0,0,0,0
1579894858625,31,-57,4,0,0,0,0,0
1579894858656.25,30,-57,4,0,0,0,0,0
1579894858687.5,29,-57,5,0,0,0,0,0
1579894858718.75,29,-57,6,0,0,0,0,0
1579894858750,39,-56,15,0,0,0,0,0
1579894858781.25,38,-54,14,0,0,0,0,0
1579894858812.5,34,-55,9,0,0,0,0,0
1579894858843.75,31,-56,6,0,0,0,0,0
1579894858875,27,-58,4,0,0,0,0,0
1579894858906.25,24,-59,3,0,0,0,0,0
1579894858937.5,22,-58,2,0,0,0,0,0
1579894858968.75,23,-58,2,0,0,0,0,0
1579894859000,27,-58,3,0,0,0,0,0
1579894859031.25,23,-57,4,0,0,0,0,0
1579894859062.5,23,-57,4,0,0,0,0,0
1579894859093.75,26,-57,6,0,0,0,0,0
1579894859125,26,-57,5,0,0,0,0,0
1579894859156.25,26,-57,5,0,0,0,0,0
1579894859187.5,27,-58,3,0,0,0,0,0
1579894859218.75,29,-58,6,0,0,0,0,0
1579894859250,28,-57,6,0,0,0,0,0
1579894859281.25,27,-58,5,0,0,0,0,0
1579894859312.5,25,-58,5,0,0,0,0,0
1579894859343.75,26,-58,5,0,0,0,0,0
1579894859375,25,-58,4,0,0,0,0,0
1579894859406.25,25,-58,4,0,0,0,0,0
1579894859437.5,24,-57,4,0,0,0,0,0
1579894859468.75,25,-58,5,0,0,0,0,0
1579894859500,26,-58,5,0,0,0,0,0
1579894859531.25,26,-58,5,0,0,0,0,0
1579894859562.5,26,-57,6,0,0,0,0,0
1579894859593.75,26,-57,5,0,0,0,0,0
1579894859625,27,-57,5,0,0,0,0,0
1579894859656.25,27,-57,5,0,0,0,0,0
1579894859687.5,27,-57,6,0,0,0,0,0
1579894859718.75,27,-57,6,0,0,0,0,0
1579894859750,28,-56,7,0,0,0,0,0
1579894859781.25,29,-55,7,0,0,0,0,0
1579894859812.5,33,-54,10,0,0,0,0,0
1579894859843.75,32,-56,8,0,0,0,0,0
1579894859875,31,-56,7,0,0,0,0,0
1579894859906.25,30,-55,6,0,0,0,0,0
1579894859937.5,29,-54,5,0,0,0,0,0
1579894859968.75,28,-55,4,0,0,0,0,0
1579894860000,25,-57,3,0,0,0,0,0
1579894860031.25,21,-58,1,0,0,0,0,0
1579894860062.5,22,-56,1,0,0,0,0,0
1579894860093.75,24,-56,2,0,0,0,0,0
1579894860125,22,-53,1,0,0,0,0,0
1579894860156.25,24,-55,1,0,0,0,0,0
1579894860187.5,29,-61,0,0,0,0,0,0
1579894860218.75,33,-64,0,0,0,0,0,0
1579894860250,29,-71,-6,0,0,0,0,0
1579894860281.25,23,-61,-2,0,0,0,0,0
1579894860312.5,23,-57,1,0,0,0,0,0
1579894860343.75,24,-53,2,0,0,0,0,0
1579894860375,25,-56,1,0,0,0,0,0
1579894860406.25,25,-57,1,0,0,0,0,0
1579894860437.5,26,-58,1,0,0,0,0,0
1579894860468.75,29,-58,2,0,0,0,0,0
1579894860500,31,-60,3,0,0,0,0,0
1579894860531.25,32,-62,2,0,0,0,0,0
1579894860562.5,26,-56,4,0,0,0,0,0
1579894860593.75,25,-55,3,0,0,0,0,0
1579894860625,23,-57,2,0,0,0,0,0
1579894860656.25,19,-61,3,0,0,0,0,0
1579894860687.5,18,-60,5,0,0,0,0,0
1579894860718.75,18,-56,10,0,0,0,0,0
1579894860750,17,-57,11,0,0,0,0,0
1579894860781.25,26,-59,12,0,0,0,0,0
1579894860812.5,46,-66,9,0,0,0,0,0
1579894860843.75,42,-60,10,0,0,0,0,0
1579894860875,40,-44,12,0,0,0,0,0
1579894860906.25,40,-38,12,0,0,0,0,0
1579894860937.5,37,-40,10,0,0,0,0,0
1579894860968.75,37,-47,9,0,0,0,0,0
1579894861000,35,-50,9,0,0,0,0,0
1579894861031.25,33,-52,8,0,0,0,0,0
1579894861062.5,29,-66,9,0,0,0,0,0
1579894861093.75,22,-61,6,0,0,0,0,0
1579894861125,27,-53,12,0,0,0,0,0
1579894861156.25,23,-51,10,0,0,0,0,0
1579894861187.5,23,-53,4,0,0,0,0,0
1579894861218.75,25,-53,4,0,0,0,0,0
1579894861250,27,-57,4,0,0,0,0,0
1579894861281.25,25,-59,3,0,0,0,0,0
1579894861312.5,27,-57,3,0,0,0,0,0
1579894861343.75,28,-54,3,0,0,0,0,0
1579894861375,28,-53,3,0,0,0,0,0
1579894861406.25,26,-54,3,0,0,0,0,0
1579894861437.5,29,-58,4,0,0,0,0,0
1579894861468.75,28,-58,2,0,0,0,0,0
1579894861500,29,-60,1,0,0,0,0,0
1579894861531.25,30,-59,3,0,0,0,0,0
1579894861562.5,30,-60,5,0,0,0,0,0
1579894861593.75,31,-59,7,0,0,0,0,0
1579894861625,33,-56,5,0,0,0,0,0
1579894861656.25,32,-57,4,0,0,0,0,0
1579894861687.5,32,-55,3,0,0,0,0,0
1579894861718.75,33,-55,2,0,0,0,0,0
1579894861750,33,-55,2,0,0,0,0,0
1579894861781.25,32,-56,2,0,0,0,0,0
1579894861812.5,31,-56,2,0,0,0,0,0
1579894861843.75,31,-56,2,0,0,0,0,0
1579894861875,30,-55,1,0,0,0,0,0
1579894861906.25,31,-54,1,0,0,0,0,0
1579894861937.5,31,-54,2,0,0,0,0,0
1579894861968.75,31,-53,1,0,0,0,0,0
1579894862000,32,-55,1,0,0,0,0,0
1579894862031.25,32,-55,1,0,0,0,0,0
1579894862062.5,30,-56,1,0,0,0,0,0
1579894862093.75,27,-58,1,0,0,0,0,0
1579894862125,26,-58,2,0,0,0,0,0
1579894862156.25,29,-56,4,0,0,0,0,0
1579894862187.5,30,-55,4,0,0,0,0,0
1579894862218.75,33,-54,4,0,0,0,0,0
1579894862250,33,-53,3,0,0,0,0,0
1579894862281.25,33,-53,2,0,0,0,0,0
1579894862312.5,32,-54,1,0,0,0,0,0
1579894862343.75,32,-54,3,0,0,0,0,0
1579894862375,32,-54,3,0,0,0,0,0
1579894862406.25,31,-55,5,0,0,0,0,0
1579894862437.5,31,-54,4,0,0,0,0,0
1579894862468.75,32,-55,3,0,0,0,0,0
1579894862500,33,-54,4,0,0,0,0,0
1579894862531.25,32,-54,5,0,0,0,0,0
1579894862562.5,32,-54,4,0,0,0,0,0
1579894862593.75,31,-55,5,0,0,0,0,0
1579894862625,30,-56,5,0,0,0,0,0
1579894862656.25,30,-55,5,0,0,0,0,0
1579894862687.5,30,-55,5,0,0,0,0,0
1579894862718.75,29,-55,6,0,0,0,0,0
1579894862750,29,-55,5,0,0,0,0,0
1579894862781.25,29,-55,5,0,0,0,0,0
1579894862812.5,30,-55,5,0,0,0,0,0
1579894862843.75,30,-55,5,0,0,0,0,0
1579894862875,29,-56,5,0,0,0,0,0
1579894862906.25,29,-56,5,0,0,0,0,0
1579894862937.5,28,-56,5,0,0,0,0,0
1579894862968.75,27,-56,4,0,0,0,0,0
1579894863000,28,-56,5,0,0,0,0,0
1579894863031.25,28,-56,5,0,0,0,0,0
1579894863062.5,29,-56,5,0,0,0,0,0
1579894863093.75,29,-56,5,0,0,0,0,0
1579894863125,29,-56,5,0,0,0,0,0
1579894863156.25,29,-56,5,0,0,0,0,0
1579894863187.5,29,-56,5,0,0,0,0,0
1579894863218.75,29,-56,5,0,0,0,0,0
1579894863250,29,-56,5,0,0,0,0,0
1579894863281.25,29,-55,5,0,0,0,0,0
1579894863312.5,30,-56,5,0,0,0,0,0
1579894863343.75,29,-56,5,0,0,0,0,0
1579894863375,29,-56,5,0,0,0,0,0
1579894863406.25,30,-55,5,0,0,0,0,0
1579894863437.5,30,-55,6,0,0,0,0,0
1579894863468.75,30,-55,5,0,0,0,0,0
1579894863500,30,-55,5,0,0,0,0,0
1579894863531.25,29,-55,5,0,0,0,0,0
1579894863562.5,29,-56,5,0,0,0,0,0
1579894863593.75,29,-56,5,0,0,0,0,0
1579894863625,29,-55,5,0,0,0,0,0
1579894863656.25,29,-55,5,0,0,0,0,0
1579894863687.5,29,-55,5,0,0,0,0,0
1579894863718.75,29,-55,5,0,0,0,0,0
1579894863750,29,-56,5,0,0,0,0,0
1579894863781.25,29,-56,5,0,0,0,0,0
1579894863812.5,29,-56,5,0,0,0,0,0
1579894863843.75,29,-55,4,0,0,0,0,0
1579894863875,29,-56,4,0,0,0,0,0
1579894863906.25,29,-56,4,0,0,0,0,0
1579894863937.5,28,-56,4,0,0,0,0,0
1579894863968.75,27,-57,4,0,0,0,0,0
1579894864000,28,-57,4,0,0,0,0,0
1579894864031.25,29,-56,4,0,0,0,0,0
1579894864062.5,30,-56,5,0,0,0,0,0
1579894864093.75,31,-56,4,0,0,0,0,0
1579894864125,31,-56,4,0,0,0,0,0
1579894864156.25,31,-56,4,0,0,0,0,0
1579894864187.5,31,-55,3,0,0,0,0,0
1579894864218.75,30,-56,3,0,0,0,0,0
1579894864250,29,-56,3,0,0,0,0,0
1579894864281.25,28,-57,3,0,0,0,0,0
1579894864312.5,28,-59,5,0,0,0,0,0
1579894864343.75,28,-60,6,0,0,0,0,0
1579894864375,29,-60,9,0,0,0,0,0
1579894864406.25,30,-59,12,0,0,0,0,0
1579894864437.5,31,-59,15,0,0,0,0,0
1579894864468.75,33,-60,17,0,0,0,0,0
1579894864500,29,-59,7,0,0,0,0,0
1579894864531.25,23,-51,3,0,0,0,0,0
1579894864562.5,12,-48,-5,0,0,0,0,0
1579894864593.75,10,-48,-5,0,0,0,0,0
1579894864625,19,-47,0,0,0,0,0,0
1579894864656.25,34,-45,11,0,0,0,0,0
1579894864687.5,33,-49,15,0,0,0,0,0
1579894864718.75,34,-53,14,0,0,0,0,0
1579894864750,41,-50,10,0,0,0,0,0
1579894864781.25,39,-45,5,0,0,0,0,0
1579894864812.5,38,-41,5,0,0,0,0,0
1579894864843.75,40,-41,5,0,0,0,0,0
1579894864875,46,-71,8,0,0,0,0,0
1579894864906.25,50,-94,10,0,0,0,0,0
1579894864937.5,46,-82,6,0,0,0,0,0
1579894864968.75,48,-54,9,0,0,0,0,0
1579894865000,23,-50,-2,0,0,0,0,0
1579894865031.25,35,-56,-4,0,0,0,0,0
1579894865062.5,36,-56,-2,0,0,0,0,0
1579894865093.75,35,-60,-6,0,0,0,0,0
1579894865125,23,-58,-10,0,0,0,0,0
1579894865156.25,17,-58,-11,0,0,0,0,0
1579894865187.5,17,-61,-8,0,0,0,0,0
1579894865218.75,22,-66,-5,0,0,0,0,0
1579894865250,23,-64,-2,0,0,0,0,0
1579894865281.25,27,-56,4,0,0,0,0,0
1579894865312.5,28,-49,6,0,0,0,0,0
1579894865343.75,29,-47,7,0,0,0,0,0
1579894865375,30,-46,6,0,0,0,0,0
1579894865406.25,32,-51,3,0,0,0,0,0
1579894865437.5,33,-52,3,0,0,0,0,0
1579894865468.75,36,-55,5,0,0,0,0,0
1579894865500,36,-54,6,0,0,0,0,0
1579894865531.25,33,-55,5,0,0,0,0,0
1579894865562.5,34,-56,5,0,0,0,0,0
1579894865593.75,32,-61,3,0,0,0,0,0
1579894865625,30,-63,2,0,0,0,0,0
1579894865656.25,31,-64,4,0,0,0,0,0
1579894865687.5,34,-69,6,0,0,0,0,0
1579894865718.75,38,-83,4,0,0,0,0,0
1579894865750,31,-65,7,0,0,0,0,0
1579894865781.25,26,-51,11,0,0,0,0,0
1579894865812.5,18,-34,10,0,0,0,0,0
1579894865843.75,9,-46,-2,0,0,0,0,0
1579894865875,8,-51,-6,0,0,0,0,0
1579894865906.25,13,-58,-4,0,0,0,0,0
1579894865937.5,18,-63,0,0,0,0,0,0
1579894865968.75,19,-60,3,0,0,0,0,0
1579894866000,24,-51,10,0,0,0,0,0
1579894866031.25,25,-53,11,0,0,0,0,0
1579894866062.5,19,-55,16,0,0,0,0,0
1579894866093.75,13,-54,20,0,0,0,0,0
1579894866125,33,-49,12,0,0,0,0,0
1579894866156.25,32,-50,8,0,0,0,0,0
1579894866187.5,32,-56,4,0,0,0,0,0
1579894866218.75,31,-56,7,0,0,0,0,0
1579894866250,28,-54,10,0,0,0,0,0
1579894866281.25,32,-61,15,0,0,0,0,0
1579894866312.5,44,-88,12,0,0,0,0,0
1579894866343.75,46,-95,12,0,0,0,0,0
1579894866375,18,-66,8,0,0,0,0,0
1579894866406.25,6,-53,7,0,0,0,0,0
1579894866437.5,16,-58,8,0,0,0,0,0
1579894866468.75,25,-75,3,0,0,0,0,0
1579894866500,24,-80,0,0,0,0,0,0
1579894866531.25,11,-74,-9,0,0,0,0,0
1579894866562.5,19,-53,-2,0,0,0,0,0
1579894866593.75,24,-49,1,0,0,0,0,0
1579894866625,31,-47,5,0,0,0,0,0
1579894866656.25,25,-46,4,0,0,0,0,0
1579894866687.5,20,-46,2,0,0,0,0,0
1579894866718.75,18,-51,-3,0,0,0,0,0
1579894866750,26,-61,-4,0,0,0,0,0
1579894866781.25,28,-60,-1,0,0,0,0,0
1579894866812.5,36,-63,8,0,0,0,0,0
1579894866843.75,32,-52,26,0,0,0,0,0
1579894866875,32,-50,35,0,0,0,0,0
1579894866906.25,82,-62,42,0,0,0,0,0
1579894866937.5,39,-50,13,0,0,0,0,0
1579894866968.75,29,-46,9,0,0,0,0,0
1579894867000,37,-51,7,0,0,0,0,0
1579894867031.25,39,-60,4,0,0,0,0,0
1579894867062.5,28,-53,3,0,0,0,0,0
1579894867093.75,21,-52,1,0,0,0,0,0
1579894867125,23,-49,0,0,0,0,0,0
1579894867156.25,32,-45,3,0,0,0,0,0
1579894867187.5,34,-51,2,0,0,0,0,0
1579894867218.75,34,-54,2,0,0,0,0,0
1579894867250,39,-53,10,0,0,0,0,0
1579894867281.25,43,-47,10,0,0,0,0,0
1579894867312.5,37,-44,8,0,0,0,0,0
1579894867343.75,32,-52,3,0,0,0,0,0
1579894867375,34,-66,0,0,0,0,0,0
1579894867406.25,32,-68,1,0,0,0,0,0
1579894867437.5,24,-63,-1,0,0,0,0,0
1579894867468.75,23,-49,6,0,0,0,0,0
1579894867500,27,-46,8,0,0,0,0,0
1579894867531.25,35,-46,9,0,0,0,0,0
1579894867562.5,34,-51,8,0,0,0,0,0
1579894867593.75,32,-53,7,0,0,0,0,0
1579894867625,28,-56,5,0,0,0,0,0
1579894867656.25,29,-61,3,0,0,0,0,0
1579894867687.5,31,-63,3,0,0,0,0,0
1579894867718.75,36,-63,8,0,0,0,0,0
1579894867750,36,-53,9,0,0,0,0,0
1579894867781.25,37,-55,8,0,0,0,0,0
1579894867812.5,32,-64,7,0,0,0,0,0
1579894867843.75,28,-70,7,0,0,0,0,0
1579894867875,20,-65,8,0,0,0,0,0
1579894867906.25,19,-56,9,0,0,0,0,0
1579894867937.5,16,-54,8,0,0,0,0,0
1579894867968.75,7,-51,2,0,0,0,0,0
1579894868000,13,-60,-1,0,0,0,0,0
1579894868031.25,20,-62,0,0,0,0,0,0
1579894868062.5,23,-59,2,0,0,0,0,0
1579894868093.75,22,-54,3,0,0,0,0,0
1579894868125,24,-54,6,0,0,0,0,0
1579894868156.25,37,-52,16,0,0,0,0,0
1579894868187.5,26,-47,9,0,0,0,0,0
1579894868218.75,22,-48,7,0,0,0,0,0
1579894868250,30,-49,10,0,0,0,0,0
1579894868281.25,35,-56,15,0,0,0,0,0
1579894868312.5,35,-62,15,0,0,0,0,0
1579894868343.75,54,-66,11,0,0,0,0,0
1579894868375,45,-54,5,0,0,0,0,0
1579894868406.25,29,-53,0,0,0,0,0,0
1579894868437.5,34,-71,-10,0,0,0,0,0
1579894868468.75,27,-76,-14,0,0,0,0,0
1579894868500,18,-57,-7,0,0,0,0,0
1579894868531.25,15,-36,3,0,0,0,0,0
1579894868562.5,24,-36,3,0,0,0,0,0
1579894868593.75,33,-55,-6,0,0,0,0,0
1579894868625,31,-66,-6,0,0,0,0,0
1579894868656.25,27,-61,-4,0,0,0,0,0
1579894868687.5,25,-53,3,0,0,0,0,0
1579894868718.75,28,-51,7,0,0,0,0,0
1579894868750,26,-52,6,0,0,0,0,0
1579894868781.25,25,-55,4,0,0,0,0,0
1579894868812.5,25,-54,5,0,0,0,0,0
1579894868843.75,28,-54,6,0,0,0,0,0
1579894868875,34,-60,5,0,0,0,0,0
1579894868906.25,31,-57,4,0,0,0,0,0
1579894868937.5,29,-54,5,0,0,0,0,0
1579894868968.75,29,-59,3,0,0,0,0,0
1579894869000,31,-97,-5,0,0,0,0,0
1579894869031.25,26,-109,-8,0,0,0,0,0
1579894869062.5,25,-55,10,0,0,0,0,0
1579894869093.75,26,-34,14,0,0,0,0,0
1579894869125,20,-39,8,0,0,0,0,0
1579894869156.25,12,-49,-3,0,0,0,0,0
1579894869187.5,14,-55,-6,0,0,0,0,0
1579894869218.75,16,-65,-3,0,0,0,0,0
1579894869250,23,-58,4,0,0,0,0,0
1579894869281.25,25,-54,8,0,0,0,0,0
1579894869312.5,27,-50,11,0,0,0,0,0
1579894869343.75,21,-56,5,0,0,0,0,0
1579894869375,18,-59,5,0,0,0,0,0
1579894869406.25,15,-61,9,0,0,0,0,0
1579894869437.5,20,-57,16,0,0,0,0,0
1579894869468.75,21,-54,16,0,0,0,0,0
1579894869500,24,-52,15,0,0,0,0,0
1579894869531.25,25,-57,10,0,0,0,0,0
1579894869562.5,25,-58,9,0,0,0,0,0
1579894869593.75,27,-80,3,0,0,0,0,0
1579894869625,22,-113,-5,0,0,0,0,0
1579894869656.25,11,-110,-19,0,0,0,0,0
1579894869687.5,1,-61,4,0,0,0,0,0
1579894869718.75,0,-54,2,0,0,0,0,0
1579894869750,19,-57,-2,0,0,0,0,0
1579894869781.25,10,-43,-5,0,0,0,0,0
1579894869812.5,25,-43,-7,0,0,0,0,0
1579894869843.75,36,-47,-9,0,0,0,0,0
1579894869875,41,-51,-8,0,0,0,0,0
1579894869906.25,40,-53,-7,0,0,0,0,0
1579894869937.5,36,-54,-3,0,0,0,0,0
1579894869968.75,32,-53,1,0,0,0,0,0
1579894870000,31,-51,6,0,0,0,0,0
1579894870031.25,34,-54,9,0,0,0,0,0
1579894870062.5,26,-49,18,0,0,0,0,0
1579894870093.75,31,-47,26,0,0,0,0,0
1579894870125,24,-52,24,0,0,0,0,0
1579894870156.25,28,-68,16,0,0,0,0,0
1579894870187.5,29,-69,16,0,0,0,0,0
1579894870218.75,33,-67,17,0,0,0,0,0
1579894870250,34,-65,14,0,0,0,0,0
1579894870281.25,32,-63,9,0,0,0,0,0
1579894870312.5,29,-54,7,0,0,0,0,0
1579894870343.75,30,-63,2,0,0,0,0,0
1579894870375,32,-67,-1,0,0,0,0,0
1579894870406.25,34,-67,-2,0,0,0,0,0
1579894870437.5,36,-44,7,0,0,0,0,0
1579894870468.75,37,-39,9,0,0,0,0,0
1579894870500,36,-41,8,0,0,0,0,0
1579894870531.25,35,-58,4,0,0,0,0,0
1579894870562.5,33,-62,4,0,0,0,0,0
1579894870593.75,27,-55,5,0,0,0,0,0
1579894870625,22,-50,5,0,0,0,0,0
1579894870656.25,12,-51,1,0,0,0,0,0
1579894870687.5,4,-56,-2,0,0,0,0,0
1579894870718.75,5,-59,-1,0,0,0,0,0
1579894870750,14,-57,6,0,0,0,0,0
1579894870781.25,27,-70,20,0,0,0,0,0
1579894870812.5,16,-81,31,0,0,0,0,0
1579894870843.75,-27,-71,7,0,0,0,0,0
1579894870875,27,-72,12,0,0,0,0,0
1579894870906.25,22,-71,-2,0,0,0,0,0
1579894870937.5,23,-62,-11,0,0,0,0,0
1579894870968.75,9,-56,-12,0,0,0,0,0
1579894871000,3,-58,-17,0,0,0,0,0
1579894871031.25,13,-57,-12,0,0,0,0,0
1579894871062.5,15,-57,-10,0,0,0,0,0
1579894871093.75,18,-58,-11,0,0,0,0,0
1579894871125,23,-57,-9,0,0,0,0,0
1579894871156.25,25,-59,-5,0,0,0,0,0
1579894871187.5,28,-59,-2,0,0,0,0,0
1579894871218.75,27,-59,0,0,0,0,0,0
1579894871250,24,-58,3,0,0,0,0,0
1579894871281.25,17,-54,7,0,0,0,0,0
1579894871312.5,17,-62,10,0,0,0,0,0
1579894871343.75,18,-65,9,0,0,0,0,0
1579894871375,28,-64,4,0,0,0,0,0
1579894871406.25,30,-60,2,0,0,0,0,0
1579894871437.5,27,-60,0,0,0,0,0,0
1579894871468.75,25,-60,-2,0,0,0,0,0
1579894871500,23,-61,-3,0,0,0,0,0
1579894871531.25,23,-61,-2,0,0,0,0,0
1579894871562.5,24,-60,1,0,0,0,0,0
1579894871593.75,23,-59,5,0,0,0,0,0
1579894871625,23,-60,6,0,0,0,0,0
1579894871656.25,25,-60,4,0,0,0,0,0
1579894871687.5,28,-57,2,0,0,0,0,0
1579894871718.75,29,-56,2,0,0,0,0,0
1579894871750,29,-55,1,0,0,0,0,0
1579894871781.25,28,-56,2,0,0,0,0,0
1579894871812.5,27,-56,2,0,0,0,0,0
1579894871843.75,25,-58,3,0,0,0,0,0
1579894871875,26,-59,3,0,0,0,0,0
1579894871906.25,26,-59,3,0,0,0,0,0
1579894871937.5,25,-58,3,0,0,0,0,0
1579894871968.75,25,-57,2,0,0,0,0,0
1579894872000,25,-57,2,0,0,0,0,0
1579894872031.25,26,-58,3,0,0,0,0,0
1579894872062.5,27,-57,3,0,0,0,0,0
1579894872093.75,28,-57,4,0,0,0,0,0
1579894872125,28,-56,6,0,0,0,0,0
1579894872156.25,28,-56,5,0,0,0,0,0
1579894872187.5,27,-57,4,0,0,0,0,0
1579894872218.75,27,-57,4,0,0,0,0,0
1579894872250,27,-58,5,0,0,0,0,0
1579894872281.25,27,-57,5,0,0,0,0,0
1579894872312.5,26,-58,6,0,0,0,0,0
1579894872343.75,25,-58,5,0,0,0,0,0
1579894872375,25,-59,5,0,0,0,0,0
1579894872406.25,24,-58,4,0,0,0,0,0
1579894872437.5,24,-58,4,0,0,0,0,0
1579894872468.75,23,-58,3,0,0,0,0,0
1579894872500,23,-58,3,0,0,0,0,0
1579894872531.25,23,-58,3,0,0,0,0,0
1579894872562.5,23,-58,4,0,0,0,0,0
1579894872593.75,24,-58,4,0,0,0,0,0
1579894872625,24,-58,4,0,0,0,0,0
1579894872656.25,24,-58,4,0,0,0,0,0
1579894872687.5,23,-59,4,0,0,0,0,0
1579894872718.75,22,-59,3,0,0,0,0,0
1579894872750,22,-59,2,0,0,0,0,0
1579894872781.25,23,-59,2,0,0,0,0,0
1579894872812.5,24,-58,3,0,0,0,0,0
1579894872843.75,24,-58,3,0,0,0,0,0
1579894872875,23,-59,2,0,0,0,0,0
1579894872906.25,23,-60,3,0,0,0,0,0
1579894872937.5,23,-59,3,0,0,0,0,0
1579894872968.75,23,-60,2,0,0,0,0,0
1579894873000,22,-59,2,0,0,0,0,0
1579894873031.25,22,-59,2,0,0,0,0,0
1579894873062.5,23,-59,2,0,0,0,0,0
1579894873093.75,23,-59,2,0,0,0,0,0
1579894873125,24,-59,2,0,0,0,0,0
1579894873156.25,24,-58,2,0,0,0,0,0
1579894873187.5,25,-59,2,0,0,0,0,0
1579894873218.75,25,-59,2,0,0,0,0,0
1579894873250,25,-59,2,0,0,0,0,0
1579894873281.25,24,-59,1,0,0,0,0,0
1579894873312.5,24,-59,1,0,0,0,0,0
1579894873343.75,24,-59,1,0,0,0,0,0
1579894873375,23,-59,2,0,0,0,0,0
1579894873406.25,24,-59,1,0,0,0,0,0
1579894873437.5,24,-59,1,0,0,0,0,0
1579894873468.75,24,-58,1,0,0,0,0,0
1579894873500,25,-58,1,0,0,0,0,0
1579894873531.25,26,-58,2,0,0,0,0,0
1579894873562.5,25,-58,2,0,0,0,0,0
1579894873593.75,25,-58,2,0,0,0,0,0
1579894873625,25,-58,2,0,0,0,0,0
1579894873656.25,26,-57,1,0,0,0,0,0
1579894873687.5,26,-57,2,0,0,0,0,0
1579894873718.75,26,-57,2,0,0,0,0,0
1579894873750,26,-57,3,0,0,0,0,0
1579894873781.25,25,-58,2,0,0,0,0,0
1579894873812.5,25,-58,2,0,0,0,0,0
1579894873843.75,24,-59,2,0,0,0,0,0
1579894873875,24,-58,2,0,0,0,0,0
1579894873906.25,24,-58,2,0,0,0,0,0
1579894873937.5,25,-58,2,0,0,0,0,0
1579894873968.75,25,-58,2,0,0,0,0,0
1579894874000,25,-58,2,0,0,0,0,0
1579894874031.25,25,-58,1,0,0,0,0,0
1579894874062.5,24,-57,1,0,0,0,0,0
1579894874093.75,23,-58,0,0,0,0,0,0
1579894874125,23,-58,0,0,0,0,0,0
1579894874156.25,23,-60,-1,0,0,0,0,0
1579894874187.5,22,-60,0,0,0,0,0,0
1579894874218.75,21,-60,1,0,0,0,0,0
1579894874250,22,-59,1,0,0,0,0,0
1579894874281.25,25,-58,1,0,0,0,0,0
1579894874312.5,26,-58,1,0,0,0,0,0
1579894874343.75,26,-58,1,0,0,0,0,0
1579894874375,26,-59,1,0,0,0,0,0
1579894874406.25,26,-59,1,0,0,0,0,0
1579894874437.5,25,-59,1,0,0,0,0,0
1579894874468.75,24,-58,1,0,0,0,0,0
1579894874500,25,-58,1,0,0,0,0,0
1579894874531.25,26,-58,1,0,0,0,0,0
1579894874562.5,27,-57,2,0,0,0,0,0
1579894874593.75,27,-57,2,0,0,0,0,0
1579894874625,27,-57,2,0,0,0,0,0
1579894874656.25,25,-58,2,0,0,0,0,0
1579894874687.5,25,-58,1,0,0,0,0,0
1579894874718.75,23,-59,1,0,0,0,0,0
1579894874750,24,-59,0,0,0,0,0,0
1579894874781.25,23,-59,0,0,0,0,0,0
1579894874812.5,22,-59,0,0,0,0,0,0
1579894874843.75,22,-59,0,0,0,0,0,0
1579894874875,22,-59,0,0,0,0,0,0
1579894874906.25,23,-59,0,0,0,0,0,0
1579894874937.5,23,-59,1,0,0,0,0,0
1579894874968.75,24,-59,0,0,0,0,0,0
1579894875000,24,-59,0,0,0,0,0,0
1579894875031.25,24,-59,0,0,0,0,0,0
1579894875062.5,24,-59,0,0,0,0,0,0
1579894875093.75,25,-58,1,0,0,0,0,0
1579894875125,25,-58,0,0,0,0,0,0
1579894875156.25,26,-58,1,0,0,0,0,0
1579894875187.5,27,-57,2,0,0,0,0,0
1579894875218.75,28,-57,2,0,0,0,0,0
1579894875250,28,-57,2,0,0,0,0,0
1579894875281.25,27,-57,2,0,0,0,0,0
1579894875312.5,26,-58,2,0,0,0,0,0
1579894875343.75,24,-59,1,0,0,0,0,0
1579894875375,24,-59,0,0,0,0,0,0
1579894875406.25,25,-58,1,0,0,0,0,0
1579894875437.5,26,-57,2,0,0,0,0,0
1579894875468.75,27,-57,2,0,0,0,0,0
1579894875500,27,-58,2,0,0,0,0,0
1579894875531.25,25,-59,1,0,0,0,0,0
1579894875562.5,24,-59,1,0,0,0,0,0
1579894875593.75,23,-58,0,0,0,0,0,0
1579894875625,25,-58,1,0,0,0,0,0
1579894875656.25,25,-58,1,0,0,0,0,0
1579894875687.5,26,-58,1,0,0,0,0,0
1579894875718.75,26,-58,2,0,0,0,0,0
1579894875750,26,-57,2,0,0,0,0,0
1579894875781.25,26,-57,2,0,0,0,0,0
1579894875812.5,25,-58,1,0,0,0,0,0
1579894875843.75,25,-58,1,0,0,0,0,0
1579894875875,25,-59,1,0,0,0,0,0
1579894875906.25,25,-58,2,0,0,0,0,0
1579894875937.5,25,-57,2,0,0,0,0,0
1579894875968.75,26,-58,2,0,0,0,0,0
1579894876000,25,-58,1,0,0,0,0,0
1579894876031.25,24,-59,1,0,0,0,0,0
1579894876062.5,24,-59,1,0,0,0,0,0
1579894876093.75,24,-58,1,0,0,0,0,0
1579894876125,25,-58,2,0,0,0,0,0
1579894876156.25,25,-58,1,0,0,0,0,0
1579894876187.5,25,-59,1,0,0,0,0,0
1579894876218.75,25,-59,1,0,0,0,0,0
1579894876250,25,-59,1,0,0,0,0,0
1579894876281.25,26,-58,2,0,0,0,0,0
1579894876312.5,26,-57,2,0,0,0,0,0
1579894876343.75,27,-56,2,0,0,0,0,0
1579894876375,28,-56,2,0,0,0,0,0
1579894876406.25,27,-56,2,0,0,0,0,0
1579894876437.5,26,-58,1,0,0,0,0,0
1579894876468.75,25,-58,1,0,0,0,0,0
1579894876500,23,-59,1,0,0,0,0,0
1579894876531.25,23,-60,1,0,0,0,0,0
1579894876562.5,23,-59,1,0,0,0,0,0
1579894876593.75,24,-59,2,0,0,0,0,0
1579894876625,25,-59,2,0,0,0,0,0
1579894876656.25,25,-59,2,0,0,0,0,0
1579894876687.5,25,-58,2,0,0,0,0,0
1579894876718.75,25,-59,2,0,0,0,0,0
1579894876750,25,-58,2,0,0,0,0,0
1579894876781.25,25,-59,2,0,0,0,0,0
1579894876812.5,25,-58,2,0,0,0,0,0
1579894876843.75,25,-57,1,0,0,0,0,0
1579894876875,26,-56,1,0,0,0,0,0
1579894876906.25,27,-56,1,0,0,0,0,0
1579894876937.5,28,-57,2,0,0,0,0,0
1579894876968.75,27,-58,2,0,0,0,0,0
1579894877000,26,-57,1,0,0,0,0,0
1579894877031.25,26,-57,1,0,0,0,0,0
1579894877062.5,27,-56,1,0,0,0,0,0
1579894877093.75,27,-56,1,0,0,0,0,0
1579894877125,27,-57,2,0,0,0,0,0
1579894877156.25,27,-57,1,0,0,0,0,0
1579894877187.5,26,-57,1,0,0,0,0,0
1579894877218.75,26,-57,1,0,0,0,0,0
1579894877250,25,-58,1,0,0,0,0,0
1579894877281.25,25,-59,1,0,0,0,0,0
1579894877312.5,26,-58,1,0,0,0,0,0
1579894877343.75,27,-57,2,0,0,0,0,0
1579894877375,27,-57,1,0,0,0,0,0
1579894877406.25,27,-57,1,0,0,0,0,0
1579894877437.5,27,-58,1,0,0,0,0,0
1579894877468.75,26,-58,1,0,0,0,0,0
1579894877500,26,-58,1,0,0,0,0,0
1579894877531.25,26,-58,1,0,0,0,0,0
1579894877562.5,27,-57,1,0,0,0,0,0
1579894877593.75,26,-58,1,0,0,0,0,0
1579894877625,25,-58,0,0,0,0,0,0
1579894877656.25,25,-58,0,0,0,0,0,0
1579894877687.5,26,-58,1,0,0,0,0,0
1579894877718.75,26,-58,1,0,0,0,0,0
1579894877750,26,-58,1,0,0,0,0,0
1579894877781.25,26,-58,1,0,0,0,0,0
1579894877812.5,26,-58,1,0,0,0,0,0
1579894877843.75,26,-58,1,0,0,0,0,0
1579894877875,26,-58,1,0,0,0,0,0
1579894877906.25,25,-58,1,0,0,0,0,0
1579894877937.5,26,-57,1,0,0,0,0,0
1579894877968.75,27,-57,1,0,0,0,0,0
1579894878000,27,-57,1,0,0,0,0,0
1579894878031.25,27,-57,1,0,0,0,0,0
1579894878062.5,26,-57,1,0,0,0,0,0
1579894878093.75,26,-58,2,0,0,0,0,0
1579894878125,26,-57,1,0,0,0,0,0
1579894878156.25,26,-57,0,0,0,0,0,0
1579894878187.5,27,-57,1,0,0,0,0,0
1579894878218.75,26,-57,3,0,0,0,0,0
1579894878250,28,-57,2,0,0,0,0,0
1579894878281.25,28,-56,1,0,0,0,0,0
1579894878312.5,28,-55,1,0,0,0,0,0
1579894878343.75,28,-56,1,0,0,0,0,0
1579894878375,26,-58,2,0,0,0,0,0
1579894878406.25,25,-59,1,0,0,0,0,0
1579894878437.5,24,-59,1,0,0,0,0,0
1579894878468.75,25,-57,1,0,0,0,0,0
1579894878500,26,-57,1,0,0,0,0,0
1579894878531.25,27,-57,1,0,0,0,0,0
1579894878562.5,27,-57,2,0,0,0,0,0
1579894878593.75,26,-58,2,0,0,0,0,0
1579894878625,25,-58,1,0,0,0,0,0
1579894878656.25,24,-59,1,0,0,0,0,0
1579894878687.5,24,-59,1,0,0,0,0,0
1579894878718.75,24,-59,1,0,0,0,0,0
1579894878750,25,-58,1,0,0,0,0,0
1579894878781.25,26,-58,2,0,0,0,0,0
1579894878812.5,26,-58,2,0,0,0,0,0
1579894878843.75,26,-58,1,0,0,0,0,0
1579894878875,26,-58,1,0,0,0,0,0
1579894878906.25,26,-58,1,0,0,0,0,0
1579894878937.5,26,-57,1,0,0,0,0,0
1579894878968.75,26,-57,2,0,0,0,0,0
1579894879000,26,-57,1,0,0,0,0,0
1579894879031.25,26,-58,1,0,0,0,0,0
1579894879062.5,26,-58,1,0,0,0,0,0
1579894879093.75,26,-57,2,0,0,0,0,0
1579894879125,26,-57,2,0,0,0,0,0
1579894879156.25,26,-58,1,0,0,0,0,0
1579894879187.5,26,-58,1,0,0,0,0,0
1579894879218.75,26,-57,1,0,0,0,0,0
1579894879250,27,-57,1,0,0,0,0,0
1579894879281.25,26,-57,1,0,0,0,0,0
1579894879312.5,26,-58,1,0,0,0,0,0
1579894879343.75,26,-58,1,0,0,0,0,0
1579894879375,27,-57,1,0,0,0,0,0
1579894879406.25,27,-57,1,0,0,0,0,0
1579894879437.5,28,-57,2,0,0,0,0,0
1579894879468.75,28,-56,2,0,0,0,0,0
1579894879500,28,-56,1,0,0,0,0,0
1579894879531.25,28,-56,1,0,0,0,0,0
1579894879562.5,28,-56,1,0,0,0,0,0
1579894879593.75,28,-56,1,0,0,0,0,0
1579894879625,28,-56,2,0,0,0,0,0
1579894879656.25,28,-56,2,0,0,0,0,0
1579894879687.5,28,-56,1,0,0,0,0,0
1579894879718.75,27,-56,1,0,0,0,0,0
1579894879750,27,-58,1,0,0,0,0,0
1579894879781.25,26,-59,1,0,0,0,0,0
1579894879812.5,23,-60,0,0,0,0,0,0
1579894879843.75,25,-58,1,0,0,0,0,0
1579894879875,26,-57,1,0,0,0,0,0
1579894879906.25,27,-57,1,0,0,0,0,0
1579894879937.5,27,-58,1,0,0,0,0,0
1579894879968.75,26,-58,1,0,0,0,0,0
1579894880000,26,-58,1,0,0,0,0,0
1579894880031.25,26,-58,1,0,0,0,0,0
1579894880062.5,25,-58,2,0,0,0,0,0
1579894880093.75,26,-57,2,0,0,0,0,0
1579894880125,26,-58,1,0,0,0,0,0
1579894880156.25,26,-58,2,0,0,0,0,0
1579894880187.5,25,-58,0,0,0,0,0,0
1579894880218.75,28,-58,-1,0,0,0,0,0
1579894880250,33,-57,6,0,0,0,0,0
1579894880281.25,32,-56,11,0,0,0,0,0
1579894880312.5,16,-60,-1,0,0,0,0,0
1579894880343.75,22,-58,-3,0,0,0,0,0
1579894880375,24,-56,-3,0,0,0,0,0
1579894880406.25,21,-56,-3,0,0,0,0,0
1579894880437.5,27,-57,1,0,0,0,0,0
1579894880468.75,25,-58,1,0,0,0,0,0
1579894880500,27,-59,3,0,0,0,0,0
1579894880531.25,24,-59,3,0,0,0,0,0
1579894880562.5,24,-59,2,0,0,0,0,0
1579894880593.75,24,-59,1,0,0,0,0,0
1579894880625,24,-58,0,0,0,0,0,0
1579894880656.25,24,-59,0,0,0,0,0,0
1579894880687.5,24,-59,1,0,0,0,0,0
1579894880718.75,24,-59,2,0,0,0,0,0
1579894880750,24,-59,2,0,0,0,0,0
1579894880781.25,24,-59,2,0,0,0,0,0
1579894880812.5,22,-58,2,0,0,0,0,0
1579894880843.75,24,-59,2,0,0,0,0,0
1579894880875,23,-59,2,0,0,0,0,0
1579894880906.25,23,-59,1,0,0,0,0,0
1579894880937.5,24,-59,2,0,0,0,0,0
1579894880968.75,23,-58,2,0,0,0,0,0
1579894881000,25,-59,2,0,0,0,0,0
1579894881031.25,25,-59,2,0,0,0,0,0
1579894881062.5,24,-59,2,0,0,0,0,0
1579894881093.75,24,-59,3,0,0,0,0,0
1579894881125,24,-59,3,0,0,0,0,0
1579894881156.25,22,-60,2,0,0,0,0,0
1579894881187.5,20,-59,1,0,0,0,0,0
1579894881218.75,21,-59,1,0,0,0,0,0
1579894881250,23,-59,1,0,0,0,0,0
1579894881281.25,24,-58,2,0,0,0,0,0
1579894881312.5,24,-59,3,0,0,0,0,0
1579894881343.75,23,-59,3,0,0,0,0,0
1579894881375,22,-59,2,0,0,0,0,0
1579894881406.25,22,-59,2,0,0,0,0,0
1579894881437.5,22,-59,2,0,0,0,0,0
1579894881468.75,21,-59,2,0,0,0,0,0
1579894881500,22,-59,1,0,0,0,0,0
1579894881531.25,22,-59,2,0,0,0,0,0
1579894881562.5,21,-59,2,0,0,0,0,0
1579894881593.75,21,-59,2,0,0,0,0,0
1579894881625,22,-59,3,0,0,0,0,0
1579894881656.25,23,-59,3,0,0,0,0,0
1579894881687.5,23,-59,3,0,0,0,0,0
1579894881718.75,23,-59,3,0,0,0,0,0
1579894881750,22,-59,3,0,0,0,0,0
1579894881781.25,21,-59,2,0,0,0,0,0
1579894881812.5,22,-60,3,0,0,0,0,0
1579894881843.75,21,-59,2,0,0,0,0,0
1579894881875,23,-59,3,0,0,0,0,0
1579894881906.25,23,-59,3,0,0,0,0,0
1579894881937.5,23,-59,3,0,0,0,0,0
1579894881968.75,23,-59,3,0,0,0,0,0
1579894882000,23,-59,3,0,0,0,0,0
1579894882031.25,22,-59,3,0,0,0,0,0
1579894882062.5,22,-59,2,0,0,0,0,0
1579894882093.75,22,-59,2,0,0,0,0,0
1579894882125,22,-58,1,0,0,0,0,0
1579894882156.25,23,-58,1,0,0,0,0,0
1579894882187.5,24,-58,2,0,0,0,0,0
1579894882218.75,25,-59,2,0,0,0,0,0
1579894882250,24,-59,2,0,0,0,0,0
1579894882281.25,24,-59,2,0,0,0,0,0
1579894882312.5,24,-59,2,0,0,0,0,0
1579894882343.75,21,-60,2,0,0,0,0,0
1579894882375,20,-60,2,0,0,0,0,0
1579894882406.25,20,-60,2,0,0,0,0,0
1579894882437.5,21,-60,2,0,0,0,0,0
1579894882468.75,21,-60,2,0,0,0,0,0
1579894882500,27,-57,2,0,0,0,0,0
1579894882531.25,35,-56,4,0,0,0,0,0
1579894882562.5,33,-59,4,0,0,0,0,0
1579894882593.75,28,-60,1,0,0,0,0,0
1579894882625,26,-58,0,0,0,0,0,0
1579894882656.25,23,-56,0,0,0,0,0,0
1579894882687.5,21,-54,-2,0,0,0,0,0
1579894882718.75,20,-58,-3,0,0,0,0,0
1579894882750,19,-60,-4,0,0,0,0,0
1579894882781.25,22,-61,-6,0,0,0,0,0
1579894882812.5,24,-63,-6,0,0,0,0,0
1579894882843.75,24,-64,-6,0,0,0,0,0
1579894882875,20,-68,-7,0,0,0,0,0
1579894882906.25,15,-65,-8,0,0,0,0,0
1579894882937.5,13,-61,-7,0,0,0,0,0
1579894882968.75,17,-56,-3,0,0,0,0,0
1579894883000,20,-56,1,0,0,0,0,0
1579894883031.25,20,-57,2,0,0,0,0,0
1579894883062.5,20,-59,-1,0,0,0,0,0
1579894883093.75,24,-57,0,0,0,0,0,0
1579894883125,16,-62,-2,0,0,0,0,0
1579894883156.25,6,-81,-4,0,0,0,0,0
1579894883187.5,14,-70,0,0,0,0,0,0
1579894883218.75,24,-50,16,0,0,0,0,0
1579894883250,-6,-70,27,0,0,0,0,0
1579894883281.25,-5,-80,28,0,0,0,0,0
1579894883312.5,12,-68,27,0,0,0,0,0
1579894883343.75,14,-61,19,0,0,0,0,0
1579894883375,18,-60,14,0,0,0,0,0
1579894883406.25,21,-55,9,0,0,0,0,0
1579894883437.5,10,-57,5,0,0,0,0,0
1579894883468.75,8,-57,6,0,0,0,0,0
1579894883500,8,-55,8,0,0,0,0,0
1579894883531.25,11,-54,12,0,0,0,0,0
1579894883562.5,15,-52,14,0,0,0,0,0
1579894883593.75,18,-50,18,0,0,0,0,0
1579894883625,27,-46,22,0,0,0,0,0
1579894883656.25,32,-45,22,0,0,0,0,0
1579894883687.5,39,-40,20,0,0,0,0,0
1579894883718.75,36,-40,21,0,0,0,0,0
1579894883750,34,-41,21,0,0,0,0,0
1579894883781.25,33,-48,19,0,0,0,0,0
1579894883812.5,35,-54,19,0,0,0,0,0
1579894883843.75,40,-73,20,0,0,0,0,0
1579894883875,49,-103,18,0,0,0,0,0
1579894883906.25,37,-90,16,0,0,0,0,0
1579894883937.5,13,-58,21,0,0,0,0,0
1579894883968.75,22,-47,16,0,0,0,0,0
1579894884000,19,-46,8,0,0,0,0,0
1579894884031.25,21,-47,5,0,0,0,0,0
1579894884062.5,31,-46,5,0,0,0,0,0
1579894884093.75,38,-48,5,0,0,0,0,0
1579894884125,37,-53,-1,0,0,0,0,0
1579894884156.25,25,-60,7,0,0,0,0,0
1579894884187.5,16,-58,10,0,0,0,0,0
1579894884218.75,25,-48,20,0,0,0,0,0
1579894884250,31,-49,23,0,0,0,0,0
1579894884281.25,32,-49,27,0,0,0,0,0
1579894884312.5,26,-49,22,0,0,0,0,0
1579894884343.75,25,-46,21,0,0,0,0,0
1579894884375,27,-48,23,0,0,0,0,0
1579894884406.25,34,-60,23,0,0,0,0,0
1579894884437.5,38,-75,19,0,0,0,0,0
1579894884468.75,37,-80,17,0,0,0,0,0
1579894884500,38,-81,17,0,0,0,0,0
1579894884531.25,36,-62,20,0,0,0,0,0
1579894884562.5,31,-52,23,0,0,0,0,0
1579894884593.75,21,-45,28,0,0,0,0,0
1579894884625,12,-54,17,0,0,0,0,0
1579894884656.25,7,-54,12,0,0,0,0,0
1579894884687.5,20,-55,17,0,0,0,0,0
1579894884718.75,25,-51,22,0,0,0,0,0
1579894884750,18,-50,22,0,0,0,0,0
1579894884781.25,14,-48,13,0,0,0,0,0
1579894884812.5,18,-47,10,0,0,0,0,0
1579894884843.75,22,-42,19,0,0,0,0,0
1579894884875,23,-42,21,0,0,0,0,0
1579894884906.25,27,-41,24,0,0,0,0,0
1579894884937.5,33,-40,32,0,0,0,0,0
1579894884968.75,44,-35,32,0,0,0,0,0
1579894885000,44,-31,31,0,0,0,0,0
1579894885031.25,52,-28,30,0,0,0,0,0
1579894885062.5,68,-14,36,0,0,0,0,0
1579894885093.75,83,-10,42,0,0,0,0,0
1579894885125,97,-28,43,0,0,0,0,0
1579894885156.25,87,-31,43,0,0,0,0,0
1579894885187.5,78,-33,44,0,0,0,0,0
1579894885218.75,60,-27,47,0,0,0,0,0
1579894885250,71,-37,52,0,0,0,0,0
1579894885281.25,74,-46,49,0,0,0,0,0
1579894885312.5,66,-52,39,0,0,0,0,0
1579894885343.75,56,-48,37,0,0,0,0,0
1579894885375,25,-30,30,0,0,0,0,0
1579894885406.25,18,-22,27,0,0,0,0,0
1579894885437.5,11,-20,24,0,0,0,0,0
1579894885468.75,-1,-20,25,0,0,0,0,0
1579894885500,2,-24,31,0,0,0,0,0
1579894885531.25,9,-28,38,0,0,0,0,0
1579894885562.5,6,-35,46,0,0,0,0,0
1579894885593.75,3,-36,53,0,0,0,0,0
1579894885625,0,-31,53,0,0,0,0,0
1579894885656.25,8,-25,63,0,0,0,0,0
1579894885687.5,9,-32,67,0,0,0,0,0
1579894885718.75,7,-34,68,0,0,0,0,0
1579894885750,3,-35,69,0,0,0,0,0
1579894885781.25,10,-28,67,0,0,0,0,0
1579894885812.5,12,-27,64,0,0,0,0,0
1579894885843.75,5,-27,55,0,0,0,0,0
1579894885875,2,-28,58,0,0,0,0,0
1579894885906.25,-2,-31,57,0,0,0,0,0
1579894885937.5,3,-28,59,0,0,0,0,0
1579894885968.75,7,-26,62,0,0,0,0,0
1579894886000,7,-25,59,0,0,0,0,0
1579894886031.25,3,-28,57,0,0,0,0,0
1579894886062.5,-7,-24,42,0,0,0,0,0
1579894886093.75,8,-29,61,0,0,0,0,0
1579894886125,-6,-35,54,0,0,0,0,0
1579894886156.25,3,-35,56,0,0,0,0,0
1579894886187.5,9,-36,56,0,0,0,0,0
1579894886218.75,14,-34,52,0,0,0,0,0
1579894886250,14,-31,54,0,0,0,0,0
1579894886281.25,14,-27,55,0,0,0,0,0
1579894886312.5,19,-25,57,0,0,0,0,0
1579894886343.75,23,-25,61,0,0,0,0,0
1579894886375,20,-31,60,0,0,0,0,0
1579894886406.25,19,-27,52,0,0,0,0,0
1579894886437.5,29,-23,53,0,0,0,0,0
1579894886468.75,38,-13,54,0,0,0,0,0
1579894886500,35,-8,57,0,0,0,0,0
1579894886531.25,35,-6,61,0,0,0,0,0
1579894886562.5,29,-6,66,0,0,0,0,0
1579894886593.75,21,-7,66,0,0,0,0,0
1579894886625,21,-8,70,0,0,0,0,0
1579894886656.25,30,-8,70,0,0,0,0,0
1579894886687.5,26,-5,68,0,0,0,0,0
1579894886718.75,9,-3,66,0,0,0,0,0
1579894886750,21,-4,39,0,0,0,0,0
1579894886781.25,43,9,32,0,0,0,0,0
1579894886812.5,85,22,25,0,0,0,0,0
1579894886843.75,85,12,5,0,0,0,0,0
1579894886875,69,8,5,0,0,0,0,0
1579894886906.25,37,14,12,0,0,0,0,0
1579894886937.5,47,23,24,0,0,0,0,0
1579894886968.75,49,19,25,0,0,0,0,0
1579894887000,51,17,24,0,0,0,0,0
1579894887031.25,45,13,25,0,0,0,0,0
1579894887062.5,44,11,26,0,0,0,0,0
1579894887093.75,59,17,31,0,0,0,0,0
1579894887125,51,30,32,0,0,0,0,0
1579894887156.25,39,28,32,0,0,0,0,0
1579894887187.5,36,21,35,0,0,0,0,0
1579894887218.75,22,18,44,0,0,0,0,0
1579894887250,41,27,54,0,0,0,0,0
1579894887281.25,60,29,40,0,0,0,0,0
1579894887312.5,56,20,36,0,0,0,0,0
1579894887343.75,50,14,45,0,0,0,0,0
1579894887375,55,12,53,0,0,0,0,0
1579894887406.25,53,17,56,0,0,0,0,0
1579894887437.5,32,16,37,0,0,0,0,0
1579894887468.75,32,8,40,0,0,0,0,0
1579894887500,32,6,42,0,0,0,0,0
1579894887531.25,35,8,45,0,0,0,0,0
1579894887562.5,35,11,45,0,0,0,0,0
1579894887593.75,39,13,48,0,0,0,0,0
1579894887625,44,10,50,0,0,0,0,0
1579894887656.25,44,11,49,0,0,0,0,0
1579894887687.5,43,12,48,0,0,0,0,0
1579894887718.75,43,12,43,0,0,0,0,0
1579894887750,46,13,41,0,0,0,0,0
1579894887781.25,49,10,40,0,0,0,0,0
1579894887812.5,48,8,40,0,0,0,0,0
1579894887843.75,48,8,40,0,0,0,0,0
1579894887875,56,8,40,0,0,0,0,0
1579894887906.25,44,10,39,0,0,0,0,0
1579894887937.5,53,8,39,0,0,0,0,0
1579894887968.75,60,6,37,0,0,0,0,0
1579894888000,70,7,42,0,0,0,0,0
1579894888031.25,59,7,38,0,0,0,0,0
1579894888062.5,47,-2,35,0,0,0,0,0
