Timestamp,ACC_X,ACC_Y,ACC_Z,Note,AGG,ED,SIB,Condition
1570545813000,-49,-22,30,0,0,0,0,0
1570545813031.25,-49,-22,27,0,0,0,0,0
1570545813062.5,-50,-20,26,0,0,0,0,0
1570545813093.75,-53,-18,29,0,0,0,0,0
1570545813125,-57,-16,31,0,0,0,0,0
1570545813156.25,-55,-18,32,0,0,0,0,0
1570545813187.5,-50,-21,34,0,0,0,0,0
1570545813218.75,-47,-22,36,0,0,0,0,0
1570545813250,-44,-24,40,0,0,0,0,0
1570545813281.25,-55,-20,30,0,0,0,0,0
1570545813312.5,-67,-13,11,0,0,0,0,0
1570545813343.75,-63,-7,11,0,0,0,0,0
1570545813375,-52,-1,19,0,0,0,0,0
1570545813406.25,-49,0,22,0,0,0,0,0
1570545813437.5,-46,-2,28,0,0,0,0,0
1570545813468.75,-48,-4,27,0,0,0,0,0
1570545813500,-53,-9,19,0,0,0,0,0
1570545813531.25,-66,-7,4,0,0,0,0,0
1570545813562.5,-69,-11,-6,0,0,0,0,0
1570545813593.75,-79,-14,-16,0,0,0,0,0
1570545813625,-78,-20,-17,0,0,0,0,0
1570545813656.25,-66,-17,-4,0,0,0,0,0
1570545813687.5,-48,-11,7,0,0,0,0,0
1570545813718.75,-31,-2,11,0,0,0,0,0
1570545813750,-54,-11,-4,0,0,0,0,0
1570545813781.25,-67,-29,-27,0,0,0,0,0
1570545813812.5,-58,-33,-27,0,0,0,0,0
1570545813843.75,-51,-30,-31,0,0,0,0,0
1570545813875,-50,-25,-34,0,0,0,0,0
1570545813906.25,-51,-29,-33,0,0,0,0,0
1570545813937.5,-60,-29,-35,0,0,0,0,0
1570545813968.75,-60,-30,-37,0,0,0,0,0
1570545814000,-52,-28,-35,0,0,0,0,0
1570545814031.25,-51,-27,-34,0,0,0,0,0
1570545814062.5,-49,-26,-30,0,0,0,0,0
1570545814093.75,-49,-26,-27,0,0,0,0,0
1570545814125,-51,-26,-23,0,0,0,0,0
1570545814156.25,-53,-25,-22,0,0,0,0,0
1570545814187.5,-57,-22,-19,0,0,0,0,0
1570545814218.75,-57,-21,-17,0,0,0,0,0
1570545814250,-57,-20,-13,0,0,0,0,0
1570545814281.25,-54,-19,-10,0,0,0,0,0
1570545814312.5,-50,-20,-5,0,0,0,0,0
1570545814343.75,-54,-25,-6,0,0,0,0,0
1570545814375,-59,-26,-8,0,0,0,0,0
1570545814406.25,-69,-30,-15,0,0,0,0,0
1570545814437.5,-72,-30,-14,0,0,0,0,0
1570545814468.75,-68,-30,-7,0,0,0,0,0
1570545814500,-64,-30,-1,0,0,0,0,0
1570545814531.25,-58,-31,8,0,0,0,0,0
1570545814562.5,-56,-30,10,0,0,0,0,0
1570545814593.75,-53,-27,15,0,0,0,0,0
1570545814625,-49,-28,18,0,0,0,0,0
1570545814656.25,-50,-19,23,0,0,0,0,0
1570545814687.5,-50,-16,26,0,0,0,0,0
1570545814718.75,-51,-17,25,0,0,0,0,0
1570545814750,-54,-18,24,0,0,0,0,0
1570545814781.25,-53,-20,24,0,0,0,0,0
1570545814812.5,-49,-19,33,0,0,0,0,0
1570545814843.75,-47,-19,35,0,0,0,0,0
1570545814875,-48,-16,35,0,0,0,0,0
1570545814906.25,-49,-17,31,0,0,0,0,0
1570545814937.5,-53,-18,28,0,0,0,0,0
1570545814968.75,-53,-18,28,0,0,0,0,0
1570545815000,-50,-18,33,0,0,0,0,0
1570545815031.25,-49,-17,34,0,0,0,0,0
1570545815062.5,-50,-16,32,0,0,0,0,0
1570545815093.75,-51,-15,30,0,0,0,0,0
1570545815125,-53,-14,30,0,0,0,0,0
1570545815156.25,-53,-15,31,0,0,0,0,0
1570545815187.5,-54,-15,31,0,0,0,0,0
1570545815218.75,-53,-14,31,0,0,0,0,0
1570545815250,-53,-13,30,0,0,0,0,0
1570545815281.25,-52,-12,28,0,0,0,0,0
1570545815312.5,-52,-12,27,0,0,0,0,0
1570545815343.75,-54,-13,28,0,0,0,0,0
1570545815375,-55,-13,29,0,0,0,0,0
1570545815406.25,-55,-14,27,0,0,0,0,0
1570545815437.5,-56,-13,26,0,0,0,0,0
1570545815468.75,-56,-13,22,0,0,0,0,0
1570545815500,-56,-13,20,0,0,0,0,0
1570545815531.25,-58,-13,18,0,0,0,0,0
1570545815562.5,-58,-14,16,0,0,0,0,0
1570545815593.75,-57,-15,15,0,0,0,0,0
1570545815625,-58,-16,13,0,0,0,0,0
1570545815656.25,-59,-16,11,0,0,0,0,0
1570545815687.5,-61,-16,3,0,0,0,0,0
1570545815718.75,-63,-17,-2,0,0,0,0,0
1570545815750,-69,-18,-11,0,0,0,0,0
1570545815781.25,-76,-15,-13,0,0,0,0,0
1570545815812.5,-58,-6,-12,0,0,0,0,0
1570545815843.75,-38,-4,-6,0,0,0,0,0
1570545815875,-46,-4,6,0,0,0,0,0
1570545815906.25,-63,-11,3,0,0,0,0,0
1570545815937.5,-69,-14,-18,0,0,0,0,0
1570545815968.75,-40,-14,-26,0,0,0,0,0
1570545816000,-46,-18,-34,0,0,0,0,0
1570545816031.25,-32,-21,-41,0,0,0,0,0
1570545816062.5,-31,-25,-43,0,0,0,0,0
1570545816093.75,-54,-28,-45,0,0,0,0,0
1570545816125,-52,-30,-49,0,0,0,0,0
1570545816156.25,-39,-36,-51,0,0,0,0,0
1570545816187.5,-36,-39,-49,0,0,0,0,0
1570545816218.75,-36,-38,-45,0,0,0,0,0
1570545816250,-35,-36,-46,0,0,0,0,0
1570545816281.25,-33,-38,-46,0,0,0,0,0
1570545816312.5,-28,-38,-44,0,0,0,0,0
1570545816343.75,-29,-37,-44,0,0,0,0,0
1570545816375,-33,-39,-44,0,0,0,0,0
1570545816406.25,-34,-39,-43,0,0,0,0,0
1570545816437.5,-34,-38,-43,0,0,0,0,0
1570545816468.75,-33,-38,-42,0,0,0,0,0
1570545816500,-32,-37,-41,0,0,0,0,0
1570545816531.25,-31,-36,-42,0,0,0,0,0
1570545816562.5,-29,-36,-41,0,0,0,0,0
1570545816593.75,-28,-36,-41,0,0,0,0,0
1570545816625,-28,-35,-41,0,0,0,0,0
1570545816656.25,-27,-35,-41,0,0,0,0,0
1570545816687.5,-27,-35,-42,0,0,0,0,0
1570545816718.75,-28,-35,-43,0,0,0,0,0
1570545816750,-28,-35,-43,0,0,0,0,0
1570545816781.25,-26,-36,-44,0,0,0,0,0
1570545816812.5,-25,-36,-44,0,0,0,0,0
1570545816843.75,-26,-39,-46,0,0,0,0,0
1570545816875,-25,-40,-47,0,0,0,0,0
1570545816906.25,-24,-40,-47,0,0,0,0,0
1570545816937.5,-24,-39,-48,0,0,0,0,0
1570545816968.75,-21,-40,-50,0,0,0,0,0
1570545817000,-23,-42,-51,0,0,0,0,0
1570545817031.25,-19,-38,-51,0,0,0,0,0
1570545817062.5,-16,-36,-51,0,0,0,0,0
1570545817093.75,-23,-35,-54,0,0,0,0,0
1570545817125,-25,-37,-50,0,0,0,0,0
1570545817156.25,-34,-36,-54,0,0,0,0,0
1570545817187.5,-38,-28,-54,0,0,0,0,0
1570545817218.75,-34,-43,-51,0,0,0,0,0
1570545817250,-23,-30,-49,0,0,0,0,0
1570545817281.25,-26,-30,-49,0,0,0,0,0
1570545817312.5,-31,-26,-42,0,0,0,0,0
1570545817343.75,-30,-23,-34,0,0,0,0,0
1570545817375,-32,-24,-26,0,0,0,0,0
1570545817406.25,-28,-24,-20,0,0,0,0,0
1570545817437.5,-35,-24,-31,0,0,0,0,0
1570545817468.75,-51,-28,-47,0,0,0,0,0
1570545817500,-46,-25,-42,0,0,0,0,0
1570545817531.25,-48,-31,-23,0,0,0,0,0
1570545817562.5,-59,-32,-8,0,0,0,0,0
1570545817593.75,-51,-30,-12,0,0,0,0,0
1570545817625,-56,-31,-19,0,0,0,0,0
1570545817656.25,-54,-35,-18,0,0,0,0,0
1570545817687.5,-54,-35,-17,0,0,0,0,0
1570545817718.75,-53,-39,-10,0,0,0,0,0
1570545817750,-56,-40,-10,0,0,0,0,0
1570545817781.25,-51,-40,-4,0,0,0,0,0
1570545817812.5,-53,-41,-4,0,0,0,0,0
1570545817843.75,-59,-40,-8,0,0,0,0,0
1570545817875,-59,-38,-7,0,0,0,0,0
1570545817906.25,-53,-36,-1,0,0,0,0,0
1570545817937.5,-53,-31,6,0,0,0,0,0
1570545817968.75,-52,-30,7,0,0,0,0,0
1570545818000,-56,-31,6,0,0,0,0,0
1570545818031.25,-52,-35,7,0,0,0,0,0
1570545818062.5,-47,-31,10,0,0,0,0,0
1570545818093.75,-46,-31,12,0,0,0,0,0
1570545818125,-45,-25,23,0,0,0,0,0
1570545818156.25,-47,-32,21,0,0,0,0,0
1570545818187.5,-50,-27,16,0,0,0,0,0
1570545818218.75,-51,-27,18,0,0,0,0,0
1570545818250,-53,-28,21,0,0,0,0,0
1570545818281.25,-55,-27,21,0,0,0,0,0
1570545818312.5,-55,-26,18,0,0,0,0,0
1570545818343.75,-54,-26,18,0,0,0,0,0
1570545818375,-51,-26,20,0,0,0,0,0
1570545818406.25,-52,-27,24,0,0,0,0,0
1570545818437.5,-51,-28,23,0,0,0,0,0
1570545818468.75,-53,-21,24,0,0,0,0,0
1570545818500,-55,-18,26,0,0,0,0,0
1570545818531.25,-53,-20,24,0,0,0,0,0
1570545818562.5,-53,-20,22,0,0,0,0,0
1570545818593.75,-52,-20,23,0,0,0,0,0
1570545818625,-52,-20,25,0,0,0,0,0
1570545818656.25,-53,-20,25,0,0,0,0,0
1570545818687.5,-55,-21,24,0,0,0,0,0
1570545818718.75,-56,-21,24,0,0,0,0,0
1570545818750,-55,-22,24,0,0,0,0,0
1570545818781.25,-55,-20,25,0,0,0,0,0
1570545818812.5,-52,-18,27,0,0,0,0,0
1570545818843.75,-53,-17,25,0,0,0,0,0
1570545818875,-61,-17,15,0,0,0,0,0
1570545818906.25,-63,-17,12,0,0,0,0,0
1570545818937.5,-56,-19,14,0,0,0,0,0
1570545818968.75,-53,-18,17,0,0,0,0,0
1570545819000,-52,-17,23,0,0,0,0,0
1570545819031.25,-54,-16,22,0,0,0,0,0
1570545819062.5,-59,-16,18,0,0,0,0,0
1570545819093.75,-62,-16,15,0,0,0,0,0
1570545819125,-66,-22,5,0,0,0,0,0
1570545819156.25,-58,-19,6,0,0,0,0,0
1570545819187.5,-57,-15,12,0,0,0,0,0
1570545819218.75,-56,-12,4,0,0,0,0,0
1570545819250,-35,-3,3,0,0,0,0,0
1570545819281.25,-32,-8,31,0,0,0,0,0
1570545819312.5,-69,-36,36,0,0,0,0,0
1570545819343.75,-75,-41,-12,0,0,0,0,0
1570545819375,-67,-33,-31,0,0,0,0,0
1570545819406.25,-45,-35,-16,0,0,0,0,0
1570545819437.5,-37,-41,-4,0,0,0,0,0
1570545819468.75,-47,-50,-17,0,0,0,0,0
1570545819500,-48,-50,-26,0,0,0,0,0
1570545819531.25,-61,-44,-41,0,0,0,0,0
1570545819562.5,-48,-37,-33,0,0,0,0,0
1570545819593.75,-40,-36,-29,0,0,0,0,0
1570545819625,-38,-37,-27,0,0,0,0,0
1570545819656.25,-39,-37,-25,0,0,0,0,0
1570545819687.5,-50,-38,-33,0,0,0,0,0
1570545819718.75,-54,-37,-38,0,0,0,0,0
1570545819750,-47,-30,-40,0,0,0,0,0
1570545819781.25,-39,-28,-41,0,0,0,0,0
1570545819812.5,-38,-30,-31,0,0,0,0,0
1570545819843.75,-49,-33,-32,0,0,0,0,0
1570545819875,-56,-31,-31,0,0,0,0,0
1570545819906.25,-56,-27,-25,0,0,0,0,0
1570545819937.5,-55,-16,-17,0,0,0,0,0
1570545819968.75,-59,-16,-9,0,0,0,0,0
1570545820000,-60,-17,-5,0,0,0,0,0
1570545820031.25,-61,-24,5,0,0,0,0,0
1570545820062.5,-58,-25,5,0,0,0,0,0
1570545820093.75,-51,-24,6,0,0,0,0,0
1570545820125,-54,-23,5,0,0,0,0,0
1570545820156.25,-65,-24,2,0,0,0,0,0
1570545820187.5,-67,-25,4,0,0,0,0,0
1570545820218.75,-61,-26,13,0,0,0,0,0
1570545820250,-54,-25,15,0,0,0,0,0
1570545820281.25,-50,-21,14,0,0,0,0,0
1570545820312.5,-54,-17,10,0,0,0,0,0
1570545820343.75,-62,-9,6,0,0,0,0,0
1570545820375,-65,-9,8,0,0,0,0,0
1570545820406.25,-63,-11,13,0,0,0,0,0
1570545820437.5,-57,-14,22,0,0,0,0,0
1570545820468.75,-53,-14,26,0,0,0,0,0
1570545820500,-50,-12,30,0,0,0,0,0
1570545820531.25,-50,-14,31,0,0,0,0,0
1570545820562.5,-49,-16,24,0,0,0,0,0
1570545820593.75,-54,-16,21,0,0,0,0,0
1570545820625,-60,-17,19,0,0,0,0,0
1570545820656.25,-62,-16,20,0,0,0,0,0
1570545820687.5,-56,-15,20,0,0,0,0,0
1570545820718.75,-55,-14,19,0,0,0,0,0
1570545820750,-57,-12,17,0,0,0,0,0
1570545820781.25,-60,-14,17,0,0,0,0,0
1570545820812.5,-60,-14,21,0,0,0,0,0
1570545820843.75,-58,-15,25,0,0,0,0,0
1570545820875,-56,-16,25,0,0,0,0,0
1570545820906.25,-55,-18,23,0,0,0,0,0
1570545820937.5,-55,-18,22,0,0,0,0,0
1570545820968.75,-59,-15,17,0,0,0,0,0
1570545821000,-60,-14,14,0,0,0,0,0
1570545821031.25,-62,-14,11,0,0,0,0,0
1570545821062.5,-61,-15,12,0,0,0,0,0
1570545821093.75,-62,-18,16,0,0,0,0,0
1570545821125,-61,-20,17,0,0,0,0,0
1570545821156.25,-57,-24,21,0,0,0,0,0
1570545821187.5,-55,-25,21,0,0,0,0,0
1570545821218.75,-55,-24,19,0,0,0,0,0
1570545821250,-56,-23,15,0,0,0,0,0
1570545821281.25,-57,-22,14,0,0,0,0,0
1570545821312.5,-59,-22,17,0,0,0,0,0
1570545821343.75,-59,-22,18,0,0,0,0,0
1570545821375,-57,-21,19,0,0,0,0,0
1570545821406.25,-56,-20,19,0,0,0,0,0
1570545821437.5,-58,-17,18,0,0,0,0,0
1570545821468.75,-59,-16,17,0,0,0,0,0
1570545821500,-60,-15,16,0,0,0,0,0
1570545821531.25,-59,-14,17,0,0,0,0,0
1570545821562.5,-69,-19,13,0,0,0,0,0
1570545821593.75,-72,-16,5,0,0,0,0,0
1570545821625,-102,-15,0,0,0,0,0,0
1570545821656.25,-77,-21,15,0,0,0,0,0
1570545821687.5,-65,-9,19,0,0,0,0,0
1570545821718.75,-47,-10,24,0,0,0,0,0
1570545821750,-37,-6,26,0,0,0,0,0
1570545821781.25,-29,1,35,0,0,0,0,0
1570545821812.5,-36,4,35,0,0,0,0,0
1570545821843.75,-59,-7,40,0,0,0,0,0
1570545821875,-56,-7,43,0,0,0,0,0
1570545821906.25,-45,-12,34,0,0,0,0,0
1570545821937.5,-35,-15,30,0,0,0,0,0
1570545821968.75,-18,-19,38,0,0,0,0,0
1570545822000,-27,-9,41,0,0,0,0,0
1570545822031.25,-44,-6,36,0,0,0,0,0
1570545822062.5,-85,1,26,0,0,0,0,0
1570545822093.75,-87,1,23,0,0,0,0,0
1570545822125,-66,-2,22,0,0,0,0,0
1570545822156.25,-58,-3,22,0,0,0,0,0
1570545822187.5,-43,-8,34,0,0,0,0,0
1570545822218.75,-55,-16,36,0,0,0,0,0
1570545822250,-35,-2,29,0,0,0,0,0
1570545822281.25,-15,-2,26,0,0,0,0,0
1570545822312.5,-18,0,51,0,0,0,0,0
1570545822343.75,-48,-13,52,0,0,0,0,0
1570545822375,-51,-14,47,0,0,0,0,0
1570545822406.25,-47,-1,43,0,0,0,0,0
1570545822437.5,-58,3,46,0,0,0,0,0
1570545822468.75,-62,14,56,0,0,0,0,0
1570545822500,-75,9,43,0,0,0,0,0
1570545822531.25,-81,-3,40,0,0,0,0,0
1570545822562.5,-101,-17,53,0,0,0,0,0
1570545822593.75,-36,-20,54,0,0,0,0,0
1570545822625,-7,-13,50,0,0,0,0,0
1570545822656.25,9,3,33,0,0,0,0,0
1570545822687.5,8,11,34,0,0,0,0,0
1570545822718.75,-14,17,31,0,0,0,0,0
1570545822750,-39,19,33,0,0,0,0,0
1570545822781.25,-67,5,21,0,0,0,0,0
1570545822812.5,-71,3,13,0,0,0,0,0
1570545822843.75,-74,-2,14,0,0,0,0,0
1570545822875,-76,0,18,0,0,0,0,0
1570545822906.25,-72,1,16,0,0,0,0,0
1570545822937.5,-63,7,2,0,0,0,0,0
1570545822968.75,-62,10,-2,0,0,0,0,0
1570545823000,-62,8,1,0,0,0,0,0
1570545823031.25,-66,5,0,0,0,0,0,0
1570545823062.5,-72,1,-4,0,0,0,0,0
1570545823093.75,-69,3,-7,0,0,0,0,0
1570545823125,-56,7,-6,0,0,0,0,0
1570545823156.25,-54,8,-5,0,0,0,0,0
1570545823187.5,-64,7,-5,0,0,0,0,0
1570545823218.75,-70,4,-7,0,0,0,0,0
1570545823250,-68,4,-6,0,0,0,0,0
1570545823281.25,-66,4,-6,0,0,0,0,0
1570545823312.5,-64,3,-4,0,0,0,0,0
1570545823343.75,-56,1,3,0,0,0,0,0
1570545823375,-58,0,3,0,0,0,0,0
1570545823406.25,-57,0,3,0,0,0,0,0
1570545823437.5,-56,0,-3,0,0,0,0,0
1570545823468.75,-69,1,14,0,0,0,0,0
1570545823500,-63,4,15,0,0,0,0,0
1570545823531.25,-57,-1,9,0,0,0,0,0
1570545823562.5,-57,-3,8,0,0,0,0,0
1570545823593.75,-60,-17,4,0,0,0,0,0
1570545823625,-70,-22,11,0,0,0,0,0
1570545823656.25,-71,-24,12,0,0,0,0,0
1570545823687.5,-62,-26,16,0,0,0,0,0
1570545823718.75,-55,-27,16,0,0,0,0,0
1570545823750,-51,-28,18,0,0,0,0,0
1570545823781.25,-55,-32,25,0,0,0,0,0
1570545823812.5,-62,-31,28,0,0,0,0,0
1570545823843.75,-63,-28,26,0,0,0,0,0
1570545823875,-59,-31,29,0,0,0,0,0
1570545823906.25,-58,-29,27,0,0,0,0,0
1570545823937.5,-52,-27,24,0,0,0,0,0
1570545823968.75,-55,-20,19,0,0,0,0,0
1570545824000,-47,-20,13,0,0,0,0,0
1570545824031.25,-47,-16,7,0,0,0,0,0
1570545824062.5,-48,-16,12,0,0,0,0,0
1570545824093.75,-41,-18,16,0,0,0,0,0
1570545824125,-60,-17,5,0,0,0,0,0
1570545824156.25,-74,-11,0,0,0,0,0,0
1570545824187.5,-65,-9,-4,0,0,0,0,0
1570545824218.75,-61,-8,-12,0,0,0,0,0
1570545824250,-61,-9,-12,0,0,0,0,0
1570545824281.25,-54,-13,-4,0,0,0,0,0
1570545824312.5,-56,-16,0,0,0,0,0,0
1570545824343.75,-59,-17,1,0,0,0,0,0
1570545824375,-58,-16,-1,0,0,0,0,0
1570545824406.25,-51,-14,3,0,0,0,0,0
1570545824437.5,-51,-3,-7,0,0,0,0,0
1570545824468.75,-65,-10,-21,0,0,0,0,0
1570545824500,-66,-10,-26,0,0,0,0,0
1570545824531.25,-63,-8,-26,0,0,0,0,0
1570545824562.5,-64,-10,-24,0,0,0,0,0
1570545824593.75,-64,-8,-20,0,0,0,0,0
1570545824625,-59,-10,-14,0,0,0,0,0
1570545824656.25,-58,-14,-13,0,0,0,0,0
1570545824687.5,-56,-21,-12,0,0,0,0,0
1570545824718.75,-57,-22,-13,0,0,0,0,0
1570545824750,-63,-19,-22,0,0,0,0,0
1570545824781.25,-66,-15,-26,0,0,0,0,0
1570545824812.5,-57,-10,-25,0,0,0,0,0
1570545824843.75,-53,-13,-10,0,0,0,0,0
1570545824875,-54,-14,-9,0,0,0,0,0
1570545824906.25,-60,-14,-28,0,0,0,0,0
1570545824937.5,-61,-11,-34,0,0,0,0,0
1570545824968.75,-55,-5,-33,0,0,0,0,0
1570545825000,-54,-5,-32,0,0,0,0,0
1570545825031.25,-58,-7,-28,0,0,0,0,0
1570545825062.5,-59,-7,-29,0,0,0,0,0
1570545825093.75,-57,-5,-35,0,0,0,0,0
1570545825125,-54,-6,-35,0,0,0,0,0
1570545825156.25,-52,-7,-32,0,0,0,0,0
1570545825187.5,-55,-8,-34,0,0,0,0,0
1570545825218.75,-55,-8,-33,0,0,0,0,0
1570545825250,-54,-9,-30,0,0,0,0,0
1570545825281.25,-55,-10,-30,0,0,0,0,0
1570545825312.5,-56,-11,-29,0,0,0,0,0
1570545825343.75,-55,-11,-32,0,0,0,0,0
1570545825375,-57,-14,-33,0,0,0,0,0
1570545825406.25,-60,-13,-31,0,0,0,0,0
1570545825437.5,-61,-14,-28,0,0,0,0,0
1570545825468.75,-61,-16,-27,0,0,0,0,0
1570545825500,-55,-15,-24,0,0,0,0,0
1570545825531.25,-52,-15,-23,0,0,0,0,0
1570545825562.5,-51,-14,-25,0,0,0,0,0
1570545825593.75,-77,-12,-28,0,0,0,0,0
1570545825625,-97,-19,-10,0,0,0,0,0
1570545825656.25,-86,-11,5,0,0,0,0,0
1570545825687.5,-95,-16,1,0,0,0,0,0
1570545825718.75,-82,1,24,0,0,0,0,0
1570545825750,-72,1,32,0,0,0,0,0
1570545825781.25,-65,-7,23,0,0,0,0,0
1570545825812.5,-63,-6,18,0,0,0,0,0
1570545825843.75,-53,7,4,0,0,0,0,0
1570545825875,-51,13,-7,0,0,0,0,0
1570545825906.25,-50,22,-27,0,0,0,0,0
1570545825937.5,-45,27,-34,0,0,0,0,0
1570545825968.75,-41,32,-42,0,0,0,0,0
1570545826000,-29,30,-44,0,0,0,0,0
1570545826031.25,-22,29,-44,0,0,0,0,0
1570545826062.5,-21,30,-30,0,0,0,0,0
1570545826093.75,-19,30,-25,0,0,0,0,0
1570545826125,-31,38,-19,0,0,0,0,0
1570545826156.25,-34,45,-15,0,0,0,0,0
1570545826187.5,-41,67,-4,0,0,0,0,0
1570545826218.75,-48,74,1,0,0,0,0,0
1570545826250,-62,67,0,0,0,0,0,0
1570545826281.25,-68,59,-1,0,0,0,0,0
1570545826312.5,-65,49,3,0,0,0,0,0
1570545826343.75,-60,45,4,0,0,0,0,0
1570545826375,-47,41,6,0,0,0,0,0
1570545826406.25,-40,40,5,0,0,0,0,0
1570545826437.5,-35,41,3,0,0,0,0,0
1570545826468.75,-29,43,-1,0,0,0,0,0
1570545826500,-24,42,-11,0,0,0,0,0
1570545826531.25,-19,37,-29,0,0,0,0,0
1570545826562.5,-22,33,-36,0,0,0,0,0
1570545826593.75,-26,13,-21,0,0,0,0,0
1570545826625,-32,1,-6,0,0,0,0,0
1570545826656.25,-52,-16,-15,0,0,0,0,0
1570545826687.5,-75,-30,-9,1,0,0,0,0
1570545826718.75,-126,-24,47,1,0,0,0,0
1570545826750,-128,-45,-16,1,0,0,0,0
1570545826781.25,-97,-20,-38,1,0,0,0,0
1570545826812.5,-89,-15,-43,1,0,0,0,0
1570545826843.75,-73,-13,-27,1,0,0,0,0
1570545826875,-57,-15,-26,1,0,0,0,0
1570545826906.25,-43,-12,-12,1,0,0,0,0
1570545826937.5,-21,-19,19,1,0,0,0,0
1570545826968.75,-8,-33,45,1,0,0,0,0
1570545827000,-12,-23,72,1,0,0,0,0
1570545827031.25,-29,-17,55,1,0,0,0,0
1570545827062.5,-50,-19,32,1,0,0,0,0
1570545827093.75,-49,-18,31,1,0,0,0,0
1570545827125,-57,-16,36,0,0,0,0,0
1570545827156.25,-65,-14,38,0,0,0,0,0
1570545827187.5,-66,-12,36,0,0,0,0,0
1570545827218.75,-63,-11,32,0,0,0,0,0
1570545827250,-61,-11,18,0,0,0,0,0
1570545827281.25,-60,-6,17,0,0,0,0,0
1570545827312.5,-58,-2,26,0,0,0,0,0
1570545827343.75,-41,-4,43,0,0,0,0,0
1570545827375,-46,-5,53,0,0,0,0,0
1570545827406.25,-48,-8,30,0,0,0,0,0
1570545827437.5,-43,-11,30,0,0,0,0,0
1570545827468.75,-53,-6,20,0,0,0,0,0
1570545827500,-56,-9,20,0,0,0,0,0
1570545827531.25,-60,-19,13,0,0,0,0,0
1570545827562.5,-61,-30,9,0,0,0,0,0
1570545827593.75,-77,-26,-4,0,0,0,0,0
1570545827625,-79,-28,-5,0,0,0,0,0
1570545827656.25,-63,-24,7,0,0,0,0,0
1570545827687.5,-40,-16,31,0,0,0,0,0
1570545827718.75,-45,-11,33,0,0,0,0,0
1570545827750,-59,-12,20,0,0,0,0,0
1570545827781.25,-66,-12,12,0,0,0,0,0
1570545827812.5,-64,-12,2,0,0,0,0,0
1570545827843.75,-61,-13,1,0,0,0,0,0
1570545827875,-60,-16,9,0,0,0,0,0
1570545827906.25,-59,-18,16,0,0,0,0,0
1570545827937.5,-56,-18,24,0,0,0,0,0
1570545827968.75,-56,-18,21,0,0,0,0,0
1570545828000,-59,-18,13,0,0,0,0,0
1570545828031.25,-63,-17,10,0,0,0,0,0
1570545828062.5,-62,-17,11,0,0,0,0,0
1570545828093.75,-59,-16,12,0,0,0,0,0
1570545828125,-58,-15,13,0,0,0,0,0
1570545828156.25,-59,-14,12,0,0,0,0,0
1570545828187.5,-59,-14,13,0,0,0,0,0
1570545828218.75,-59,-16,14,0,0,0,0,0
1570545828250,-59,-16,14,0,0,0,0,0
1570545828281.25,-61,-17,11,0,0,0,0,0
1570545828312.5,-62,-17,10,0,0,0,0,0
1570545828343.75,-62,-16,9,0,0,0,0,0
1570545828375,-61,-16,11,0,0,0,0,0
1570545828406.25,-59,-15,13,0,0,0,0,0
1570545828437.5,-59,-15,14,0,0,0,0,0
1570545828468.75,-58,-15,15,0,0,0,0,0
1570545828500,-59,-16,14,0,0,0,0,0
1570545828531.25,-59,-17,14,0,0,0,0,0
1570545828562.5,-60,-17,13,0,0,0,0,0
1570545828593.75,-60,-17,13,0,0,0,0,0
1570545828625,-60,-16,12,0,0,0,0,0
1570545828656.25,-61,-16,12,0,0,0,0,0
1570545828687.5,-60,-15,12,0,0,0,0,0
1570545828718.75,-60,-15,13,0,0,0,0,0
1570545828750,-59,-15,14,0,0,0,0,0
1570545828781.25,-59,-15,14,0,0,0,0,0
1570545828812.5,-59,-15,13,0,0,0,0,0
1570545828843.75,-59,-15,13,0,0,0,0,0
1570545828875,-60,-15,12,0,0,0,0,0
1570545828906.25,-60,-16,12,0,0,0,0,0
1570545828937.5,-60,-16,13,0,0,0,0,0
1570545828968.75,-59,-15,14,0,0,0,0,0
1570545829000,-59,-16,15,0,0,0,0,0
1570545829031.25,-59,-16,13,0,0,0,0,0
1570545829062.5,-60,-16,12,0,0,0,0,0
1570545829093.75,-60,-16,11,0,0,0,0,0
1570545829125,-60,-16,12,0,0,0,0,0
1570545829156.25,-60,-16,13,0,0,0,0,0
1570545829187.5,-59,-16,14,0,0,0,0,0
1570545829218.75,-60,-16,14,0,0,0,0,0
1570545829250,-60,-16,13,0,0,0,0,0
1570545829281.25,-59,-17,15,0,0,0,0,0
1570545829312.5,-59,-15,12,0,0,0,0,0
1570545829343.75,-60,-14,7,0,0,0,0,0
1570545829375,-62,-13,4,0,0,0,0,0
1570545829406.25,-62,-13,6,0,0,0,0,0
1570545829437.5,-62,-14,9,0,0,0,0,0
1570545829468.75,-61,-15,12,0,0,0,0,0
1570545829500,-59,-14,14,0,0,0,0,0
1570545829531.25,-59,-14,12,0,0,0,0,0
1570545829562.5,-60,-15,9,0,0,0,0,0
1570545829593.75,-62,-16,9,0,0,0,0,0
1570545829625,-67,-22,10,0,0,0,0,0
1570545829656.25,-70,-25,10,0,0,0,0,0
1570545829687.5,-74,-26,19,0,0,0,0,0
1570545829718.75,-61,-29,21,0,0,0,0,0
1570545829750,-59,-24,19,0,0,0,0,0
1570545829781.25,-50,-28,17,0,0,0,0,0
1570545829812.5,-49,-31,17,0,0,0,0,0
1570545829843.75,-23,-22,37,0,0,0,0,0
1570545829875,-40,-22,32,0,0,0,0,0
1570545829906.25,5,-19,62,0,0,0,0,0
1570545829937.5,10,-14,85,0,0,0,0,0
1570545829968.75,-46,-11,61,0,0,0,0,0
1570545830000,-13,-10,46,0,0,0,0,0
1570545830031.25,-9,-5,36,0,0,0,0,0
1570545830062.5,-15,-6,30,0,0,0,0,0
1570545830093.75,-46,-14,47,0,0,0,0,0
1570545830125,-69,1,59,0,0,0,0,0
1570545830156.25,-35,-15,39,0,0,0,0,0
1570545830187.5,-43,-49,12,0,0,0,0,0
1570545830218.75,-47,-51,23,0,0,0,0,0
1570545830250,-40,-39,31,0,0,0,0,0
1570545830281.25,-47,-33,25,0,0,0,0,0
1570545830312.5,-81,-41,13,0,0,0,0,0
1570545830343.75,-128,-87,26,0,0,0,0,0
1570545830375,-21,-56,-7,0,0,0,0,0
1570545830406.25,-35,-60,3,0,0,0,0,0
1570545830437.5,-52,-47,-1,0,0,0,0,0
1570545830468.75,-42,-50,-2,0,0,0,0,0
1570545830500,-39,-56,-2,0,0,0,0,0
1570545830531.25,-26,-62,-4,0,0,0,0,0
1570545830562.5,-35,-63,-12,0,0,0,0,0
1570545830593.75,-59,-54,-2,0,0,0,0,0
1570545830625,-55,-59,14,0,0,0,0,0
1570545830656.25,-38,-59,19,0,0,0,0,0
1570545830687.5,-31,-60,23,0,0,0,0,0
1570545830718.75,-16,-48,26,0,0,0,0,0
1570545830750,-7,-52,29,0,0,0,0,0
1570545830781.25,1,-74,40,0,0,0,0,0
1570545830812.5,17,-92,22,0,0,0,0,0
1570545830843.75,-16,-79,9,0,0,0,0,0
1570545830875,-30,-54,3,0,0,0,0,0
1570545830906.25,-38,-37,6,0,0,0,0,0
1570545830937.5,-44,-18,7,0,0,0,0,0
1570545830968.75,-46,-13,8,0,0,0,0,0
1570545831000,-57,-4,17,0,0,0,0,0
1570545831031.25,-67,4,22,0,0,0,0,0
1570545831062.5,-84,-2,36,0,0,0,0,0
1570545831093.75,-85,-10,29,0,0,0,0,0
1570545831125,-93,-30,15,0,0,0,0,0
1570545831156.25,-97,-43,13,0,0,0,0,0
1570545831187.5,-92,-62,13,0,0,0,0,0
1570545831218.75,-83,-61,17,0,0,0,0,0
1570545831250,-63,-52,23,0,0,0,0,0
1570545831281.25,-37,-15,21,0,0,0,0,0
1570545831312.5,-39,-6,27,0,0,0,0,0
1570545831343.75,-21,5,24,0,0,0,0,0
1570545831375,-20,12,20,0,0,0,0,0
1570545831406.25,-25,16,11,0,0,0,0,0
1570545831437.5,-24,20,12,0,0,0,0,0
1570545831468.75,-27,26,14,0,0,0,0,0
1570545831500,-28,30,17,0,0,0,0,0
1570545831531.25,-34,38,20,0,0,0,0,0
1570545831562.5,-36,41,18,0,0,0,0,0
1570545831593.75,-44,45,11,0,0,0,0,0
1570545831625,-46,46,10,0,0,0,0,0
1570545831656.25,-40,55,5,0,0,0,0,0
1570545831687.5,-42,64,11,0,0,0,0,0
1570545831718.75,-40,66,15,0,0,0,0,0
1570545831750,-36,75,17,0,0,0,0,0
1570545831781.25,-39,76,15,0,0,0,0,0
1570545831812.5,-58,66,9,0,0,0,0,0
1570545831843.75,-68,62,5,0,0,0,0,0
1570545831875,-70,54,8,0,0,0,0,0
1570545831906.25,-64,45,14,0,0,0,0,0
1570545831937.5,-60,34,6,0,0,0,0,0
1570545831968.75,-67,28,-2,0,0,0,0,0
1570545832000,-71,14,-12,0,0,0,0,0
1570545832031.25,-70,9,-9,0,0,0,0,0
1570545832062.5,-61,3,1,0,0,0,0,0
1570545832093.75,-54,0,10,0,0,0,0,0
1570545832125,-51,2,16,0,0,0,0,0
1570545832156.25,-47,10,32,0,0,0,0,0
1570545832187.5,-45,13,41,0,0,0,0,0
1570545832218.75,-38,12,41,0,0,0,0,0
1570545832250,-27,8,42,0,0,0,0,0
1570545832281.25,-19,-11,46,0,0,0,0,0
1570545832312.5,-27,-22,52,0,0,0,0,0
1570545832343.75,-20,-21,77,0,0,0,0,0
1570545832375,-22,-16,83,0,0,0,0,0
1570545832406.25,-48,-24,83,0,0,0,0,0
1570545832437.5,-36,-38,78,0,0,0,0,0
1570545832468.75,-6,-31,75,0,0,0,0,0
1570545832500,-6,-30,72,0,0,0,0,0
1570545832531.25,-14,-20,59,0,0,0,0,0
1570545832562.5,-20,-13,51,0,0,0,0,0
1570545832593.75,-20,-11,48,0,0,0,0,0
1570545832625,-31,-8,37,0,0,0,0,0
1570545832656.25,-36,-3,35,0,0,0,0,0
1570545832687.5,-41,2,39,0,0,0,0,0
1570545832718.75,-40,2,42,0,0,0,0,0
1570545832750,-36,-3,48,0,0,0,0,0
1570545832781.25,-29,-7,51,0,0,0,0,0
1570545832812.5,-25,-14,50,0,0,0,0,0
1570545832843.75,-31,-16,54,0,0,0,0,0
1570545832875,-32,-16,64,0,0,0,0,0
1570545832906.25,-17,-18,78,0,0,0,0,0
1570545832937.5,-17,-18,76,0,0,0,0,0
1570545832968.75,-27,-13,70,0,0,0,0,0
1570545833000,-33,-14,68,0,0,0,0,0
1570545833031.25,-41,-19,69,0,0,0,0,0
1570545833062.5,-37,-23,66,0,0,0,0,0
1570545833093.75,-28,-19,60,0,0,0,0,0
1570545833125,-27,-15,57,0,0,0,0,0
1570545833156.25,-33,-10,50,0,0,0,0,0
1570545833187.5,-38,-8,50,0,0,0,0,0
1570545833218.75,-31,-12,50,0,0,0,0,0
1570545833250,-26,-15,49,0,0,0,0,0
1570545833281.25,-21,-15,43,0,0,0,0,0
1570545833312.5,-22,-11,40,0,0,0,0,0
1570545833343.75,-34,-14,42,0,0,0,0,0
1570545833375,-43,-20,45,0,0,0,0,0
1570545833406.25,-36,-22,50,0,0,0,0,0
1570545833437.5,-25,-23,63,0,0,0,0,0
1570545833468.75,-17,-24,66,0,0,0,0,0
1570545833500,-19,-20,60,0,0,0,0,0
1570545833531.25,-30,-19,55,0,0,0,0,0
1570545833562.5,-45,-12,51,0,0,0,0,0
1570545833593.75,-44,-11,51,0,0,0,0,0
1570545833625,-37,-7,52,0,0,0,0,0
1570545833656.25,-32,-5,54,0,0,0,0,0
1570545833687.5,-14,-5,62,0,0,0,0,0
1570545833718.75,0,-5,70,0,0,0,0,0
1570545833750,6,-5,72,0,0,0,0,0
1570545833781.25,5,-7,68,0,0,0,0,0
1570545833812.5,2,-6,62,0,0,0,0,0
1570545833843.75,-6,-12,56,0,0,0,0,0
1570545833875,-4,-13,55,0,0,0,0,0
1570545833906.25,4,-19,60,0,0,0,0,0
1570545833937.5,6,-21,62,0,0,0,0,0
1570545833968.75,7,-20,63,0,0,0,0,0
1570545834000,-3,-21,65,0,0,0,0,0
1570545834031.25,1,-17,60,0,0,0,0,0
1570545834062.5,6,-15,58,0,0,0,0,0
1570545834093.75,3,-12,56,0,0,0,0,0
1570545834125,7,-10,58,0,0,0,0,0
1570545834156.25,8,-10,59,0,0,0,0,0
1570545834187.5,8,-15,59,0,0,0,0,0
1570545834218.75,8,-17,57,0,0,0,0,0
1570545834250,6,-16,53,0,0,0,0,0
1570545834281.25,1,-17,53,0,0,0,0,0
1570545834312.5,-10,-23,58,0,0,0,0,0
1570545834343.75,-13,-28,55,0,0,0,0,0
1570545834375,-10,-43,52,0,0,0,0,0
1570545834406.25,-9,-48,53,0,0,0,0,0
1570545834437.5,-5,-48,61,0,0,0,0,0
1570545834468.75,-8,-45,62,0,0,0,0,0
1570545834500,-5,-42,47,0,0,0,0,0
1570545834531.25,-16,-48,45,0,0,0,0,0
1570545834562.5,-5,-41,62,0,0,0,0,0
1570545834593.75,0,-40,59,0,0,0,0,0
1570545834625,14,-40,62,0,0,0,0,0
1570545834656.25,-6,-38,53,0,0,0,0,0
1570545834687.5,-27,-41,55,0,0,0,0,0
1570545834718.75,-14,-41,42,0,0,0,0,0
1570545834750,-12,-40,39,0,0,0,0,0
1570545834781.25,-3,-48,51,0,0,0,0,0
1570545834812.5,-9,-48,53,0,0,0,0,0
1570545834843.75,-11,-44,46,0,0,0,0,0
1570545834875,-10,-41,40,0,0,0,0,0
1570545834906.25,-5,-43,42,0,0,0,0,0
1570545834937.5,2,-47,47,0,0,0,0,0
1570545834968.75,3,-47,44,0,0,0,0,0
1570545835000,-2,-49,47,0,0,0,0,0
1570545835031.25,-5,-53,48,0,0,0,0,0
1570545835062.5,2,-54,43,0,0,0,0,0
1570545835093.75,6,-50,36,0,0,0,0,0
1570545835125,6,-46,19,0,0,0,0,0
1570545835156.25,10,-45,13,0,0,0,0,0
1570545835187.5,19,-49,5,0,0,0,0,0
1570545835218.75,34,-52,8,0,0,0,0,0
1570545835250,39,-43,40,0,0,0,0,0
1570545835281.25,19,-39,54,0,0,0,0,0
1570545835312.5,6,-46,42,0,0,0,0,0
1570545835343.75,-26,-69,4,0,0,0,0,0
1570545835375,-14,-80,21,0,0,0,0,0
1570545835406.25,-10,-71,33,0,0,0,0,0
1570545835437.5,-5,-59,26,0,0,0,0,0
1570545835468.75,-14,-57,26,0,0,0,0,0
1570545835500,-14,-58,27,0,0,0,0,0
1570545835531.25,-13,-57,28,0,0,0,0,0
1570545835562.5,-16,-55,28,0,0,0,0,0
1570545835593.75,-14,-54,28,0,0,0,0,0
1570545835625,-14,-54,29,0,0,0,0,0
1570545835656.25,-14,-55,28,0,0,0,0,0
1570545835687.5,-15,-55,28,0,0,0,0,0
1570545835718.75,-18,-54,27,0,0,0,0,0
1570545835750,-18,-54,27,0,0,0,0,0
1570545835781.25,-17,-55,26,0,0,0,0,0
1570545835812.5,-18,-55,26,0,0,0,0,0
1570545835843.75,-16,-56,26,0,0,0,0,0
1570545835875,-16,-56,26,0,0,0,0,0
1570545835906.25,-15,-56,26,0,0,0,0,0
1570545835937.5,-11,-56,27,0,0,0,0,0
1570545835968.75,-13,-55,28,0,0,0,0,0
1570545836000,-7,-56,27,0,0,0,0,0
1570545836031.25,-3,-56,30,0,0,0,0,0
1570545836062.5,-9,-54,31,0,0,0,0,0
1570545836093.75,-8,-54,32,0,0,0,0,0
1570545836125,-16,-53,31,0,0,0,0,0
1570545836156.25,-16,-53,31,0,0,0,0,0
1570545836187.5,-14,-56,26,0,0,0,0,0
1570545836218.75,-13,-55,27,0,0,0,0,0
1570545836250,-12,-54,30,0,0,0,0,0
1570545836281.25,-17,-55,28,0,0,0,0,0
1570545836312.5,-22,-54,25,0,0,0,0,0
1570545836343.75,-22,-53,29,0,0,0,0,0
1570545836375,-18,-53,32,0,0,0,0,0
1570545836406.25,-24,-47,34,0,0,0,0,0
1570545836437.5,-23,-43,39,0,0,0,0,0
1570545836468.75,-34,-32,44,0,0,0,0,0
1570545836500,-38,-32,35,0,0,0,0,0
1570545836531.25,-57,-41,23,0,0,0,0,0
1570545836562.5,-57,-34,32,0,0,0,0,0
1570545836593.75,-54,-30,50,0,0,0,0,0
1570545836625,-16,-33,95,0,0,0,0,0
1570545836656.25,34,-42,89,0,0,0,0,0
1570545836687.5,16,-27,61,0,0,0,0,0
1570545836718.75,2,-21,62,0,0,0,0,0
1570545836750,-16,-1,62,0,0,0,0,0
1570545836781.25,-7,-3,65,0,0,0,0,0
1570545836812.5,10,1,66,0,0,0,0,0
1570545836843.75,6,0,66,0,0,0,0,0
1570545836875,-1,3,62,0,0,0,0,0
1570545836906.25,-5,7,61,0,0,0,0,0
1570545836937.5,-3,13,57,0,0,0,0,0
1570545836968.75,-4,21,50,0,0,0,0,0
1570545837000,-2,23,46,0,0,0,0,0
1570545837031.25,3,31,42,0,0,0,0,0
1570545837062.5,5,31,43,0,0,0,0,0
1570545837093.75,18,32,41,0,0,0,0,0
1570545837125,23,35,38,0,0,0,0,0
1570545837156.25,26,45,34,0,0,0,0,0
1570545837187.5,26,48,32,0,0,0,0,0
1570545837218.75,47,43,32,0,0,0,0,0
1570545837250,35,51,31,0,0,0,0,0
1570545837281.25,15,49,22,0,0,0,0,0
1570545837312.5,6,51,20,0,0,0,0,0
1570545837343.75,5,52,21,0,0,0,0,0
1570545837375,36,48,43,0,0,0,0,0
1570545837406.25,40,43,46,0,0,0,0,0
1570545837437.5,22,48,19,0,0,0,0,0
1570545837468.75,13,49,25,0,0,0,0,0
1570545837500,12,47,44,0,0,0,0,0
1570545837531.25,7,48,43,0,0,0,0,0
1570545837562.5,-1,50,41,0,0,0,0,0
1570545837593.75,-4,49,38,0,0,0,0,0
1570545837625,6,51,36,0,0,0,0,0
1570545837656.25,14,53,41,0,0,0,0,0
1570545837687.5,16,52,41,0,0,0,0,0
1570545837718.75,10,51,40,0,0,0,0,0
1570545837750,7,49,40,0,0,0,0,0
1570545837781.25,1,50,36,0,0,0,0,0
1570545837812.5,0,50,35,0,0,0,0,0
1570545837843.75,-4,50,35,0,0,0,0,0
1570545837875,-3,51,36,0,0,0,0,0
1570545837906.25,5,53,33,0,0,0,0,0
1570545837937.5,16,54,34,0,0,0,0,0
1570545837968.75,24,52,31,0,0,0,0,0
1570545838000,26,52,27,0,0,0,0,0
1570545838031.25,33,53,31,0,0,0,0,0
1570545838062.5,31,54,32,0,0,0,0,0
1570545838093.75,17,56,26,0,0,0,0,0
1570545838125,13,55,25,0,0,0,0,0
1570545838156.25,13,54,31,0,0,0,0,0
1570545838187.5,17,56,29,0,0,0,0,0
1570545838218.75,14,56,26,0,0,0,0,0
1570545838250,17,56,25,0,0,0,0,0
1570545838281.25,16,58,24,0,0,0,0,0
1570545838312.5,21,61,29,0,0,0,0,0
1570545838343.75,21,63,29,0,0,0,0,0
1570545838375,17,65,29,0,0,0,0,0
1570545838406.25,13,61,24,0,0,0,0,0
1570545838437.5,17,56,15,0,0,0,0,0
1570545838468.75,20,57,15,0,0,0,0,0
1570545838500,20,63,21,0,0,0,0,0
1570545838531.25,19,59,22,0,0,0,0,0
1570545838562.5,12,58,22,0,0,0,0,0
1570545838593.75,10,58,23,0,0,0,0,0
1570545838625,12,57,23,0,0,0,0,0
1570545838656.25,19,57,23,0,0,0,0,0
1570545838687.5,21,57,20,0,0,0,0,0
1570545838718.75,26,57,23,0,0,0,0,0
1570545838750,24,56,24,0,0,0,0,0
1570545838781.25,24,54,24,0,0,0,0,0
1570545838812.5,25,53,25,0,0,0,0,0
1570545838843.75,26,52,26,0,0,0,0,0
1570545838875,27,52,27,0,0,0,0,0
1570545838906.25,25,53,28,0,0,0,0,0
1570545838937.5,25,54,27,0,0,0,0,0
1570545838968.75,25,54,27,0,0,0,0,0
1570545839000,24,55,27,0,0,0,0,0
1570545839031.25,24,55,26,0,0,0,0,0
1570545839062.5,22,55,23,0,0,0,0,0
1570545839093.75,22,55,22,0,0,0,0,0
1570545839125,20,56,23,0,0,0,0,0
1570545839156.25,19,56,24,0,0,0,0,0
1570545839187.5,21,54,26,0,0,0,0,0
1570545839218.75,23,54,27,0,0,0,0,0
1570545839250,24,54,28,0,0,0,0,0
1570545839281.25,23,54,27,0,0,0,0,0
1570545839312.5,25,54,26,0,0,0,0,0
1570545839343.75,21,55,26,0,0,0,0,0
1570545839375,19,56,25,0,0,0,0,0
1570545839406.25,18,56,25,0,0,0,0,0
1570545839437.5,18,56,25,0,0,0,0,0
1570545839468.75,18,56,26,0,0,0,0,0
1570545839500,17,56,25,0,0,0,0,0
1570545839531.25,24,57,26,0,0,0,0,0
1570545839562.5,27,57,26,0,0,0,0,0
1570545839593.75,25,55,27,0,0,0,0,0
1570545839625,21,54,27,0,0,0,0,0
1570545839656.25,13,55,26,0,0,0,0,0
1570545839687.5,14,56,25,0,0,0,0,0
1570545839718.75,20,57,25,0,0,0,0,0
1570545839750,17,57,25,0,0,0,0,0
1570545839781.25,17,57,25,0,0,0,0,0
1570545839812.5,6,56,25,0,0,0,0,0
1570545839843.75,8,57,25,0,0,0,0,0
1570545839875,20,56,24,0,0,0,0,0
1570545839906.25,21,56,23,0,0,0,0,0
1570545839937.5,19,57,21,0,0,0,0,0
1570545839968.75,18,57,22,0,0,0,0,0
1570545840000,14,58,24,0,0,0,0,0
1570545840031.25,14,57,24,0,0,0,0,0
1570545840062.5,14,57,25,0,0,0,0,0
1570545840093.75,14,57,25,0,0,0,0,0
1570545840125,14,56,26,0,0,0,0,0
1570545840156.25,18,56,26,0,0,0,0,0
1570545840187.5,23,57,24,0,0,0,0,0
1570545840218.75,18,58,23,0,0,0,0,0
1570545840250,16,57,24,0,0,0,0,0
1570545840281.25,18,56,26,0,0,0,0,0
1570545840312.5,17,56,27,0,0,0,0,0
1570545840343.75,16,56,27,0,0,0,0,0
1570545840375,16,57,27,0,0,0,0,0
1570545840406.25,18,57,26,0,0,0,0,0
1570545840437.5,18,57,26,0,0,0,0,0
1570545840468.75,15,57,24,0,0,0,0,0
1570545840500,13,57,24,0,0,0,0,0
1570545840531.25,12,58,26,0,0,0,0,0
1570545840562.5,13,57,25,0,0,0,0,0
1570545840593.75,19,57,25,0,0,0,0,0
1570545840625,19,57,26,0,0,0,0,0
1570545840656.25,19,56,26,0,0,0,0,0
1570545840687.5,20,56,25,0,0,0,0,0
1570545840718.75,20,57,25,0,0,0,0,0
1570545840750,13,58,23,0,0,0,0,0
1570545840781.25,13,58,23,0,0,0,0,0
1570545840812.5,17,58,23,0,0,0,0,0
1570545840843.75,19,57,23,0,0,0,0,0
1570545840875,20,57,25,0,0,0,0,0
1570545840906.25,20,57,24,0,0,0,0,0
1570545840937.5,21,57,24,0,0,0,0,0
1570545840968.75,22,57,24,0,0,0,0,0
1570545841000,17,57,25,0,0,0,0,0
1570545841031.25,16,57,24,0,0,0,0,0
1570545841062.5,18,58,23,0,0,0,0,0
1570545841093.75,18,58,21,0,0,0,0,0
1570545841125,20,58,19,0,0,0,0,0
1570545841156.25,26,60,17,0,0,0,0,0
1570545841187.5,26,60,13,0,0,0,0,0
1570545841218.75,11,50,31,0,0,0,0,0
1570545841250,6,55,35,0,0,0,0,0
1570545841281.25,12,57,37,0,0,0,0,0
1570545841312.5,10,58,33,0,0,0,0,0
1570545841343.75,-5,61,20,0,0,0,0,0
1570545841375,3,63,18,0,0,0,0,0
1570545841406.25,5,62,18,0,0,0,0,0
1570545841437.5,-3,62,11,0,0,0,0,0
1570545841468.75,-6,62,7,0,0,0,0,0
1570545841500,13,65,16,0,0,0,0,0
1570545841531.25,2,65,10,0,0,0,0,0
1570545841562.5,-2,63,4,0,0,0,0,0
1570545841593.75,-3,61,4,0,0,0,0,0
1570545841625,-3,63,11,0,0,0,0,0
1570545841656.25,0,61,15,0,0,0,0,0
1570545841687.5,-14,61,20,0,0,0,0,0
1570545841718.75,-14,60,20,0,0,0,0,0
1570545841750,-19,58,23,0,0,0,0,0
1570545841781.25,-19,59,28,0,0,0,0,0
1570545841812.5,-17,59,29,0,0,0,0,0
1570545841843.75,-15,60,25,0,0,0,0,0
1570545841875,-16,60,21,0,0,0,0,0
1570545841906.25,-14,61,16,0,0,0,0,0
1570545841937.5,-13,61,16,0,0,0,0,0
1570545841968.75,-9,61,19,0,0,0,0,0
1570545842000,-7,61,21,0,0,0,0,0
1570545842031.25,-15,61,23,0,0,0,0,0
1570545842062.5,-18,60,23,0,0,0,0,0
1570545842093.75,-17,61,20,0,0,0,0,0
1570545842125,-13,60,16,0,0,0,0,0
1570545842156.25,0,59,12,0,0,0,0,0
1570545842187.5,12,59,16,0,0,0,0,0
1570545842218.75,16,59,17,0,0,0,0,0
1570545842250,19,57,20,0,0,0,0,0
1570545842281.25,21,56,22,0,0,0,0,0
1570545842312.5,35,56,36,0,0,0,0,0
1570545842343.75,21,56,28,0,0,0,0,0
1570545842375,28,56,34,0,0,0,0,0
1570545842406.25,17,56,27,0,0,0,0,0
1570545842437.5,13,53,30,0,0,0,0,0
1570545842468.75,11,54,38,0,0,0,0,0
1570545842500,2,61,34,0,0,0,0,0
1570545842531.25,5,61,24,0,0,0,0,0
1570545842562.5,1,58,19,0,0,0,0,0
1570545842593.75,4,58,25,0,0,0,0,0
1570545842625,4,57,28,0,0,0,0,0
1570545842656.25,4,57,30,0,0,0,0,0
1570545842687.5,5,57,29,0,0,0,0,0
1570545842718.75,6,57,26,0,0,0,0,0
1570545842750,9,57,27,0,0,0,0,0
1570545842781.25,15,57,31,0,0,0,0,0
1570545842812.5,16,57,32,0,0,0,0,0
1570545842843.75,13,56,30,0,0,0,0,0
1570545842875,11,57,27,0,0,0,0,0
1570545842906.25,8,59,24,0,0,0,0,0
1570545842937.5,10,58,25,0,0,0,0,0
1570545842968.75,15,57,26,0,0,0,0,0
1570545843000,18,57,28,0,0,0,0,0
1570545843031.25,18,57,27,0,0,0,0,0
1570545843062.5,12,58,26,0,0,0,0,0
1570545843093.75,10,57,26,0,0,0,0,0
1570545843125,8,57,28,0,0,0,0,0
1570545843156.25,7,57,26,0,0,0,0,0
1570545843187.5,14,58,23,0,0,0,0,0
1570545843218.75,19,58,25,0,0,0,0,0
1570545843250,20,57,28,0,0,0,0,0
1570545843281.25,19,57,28,0,0,0,0,0
1570545843312.5,13,57,26,0,0,0,0,0
1570545843343.75,11,57,25,0,0,0,0,0
1570545843375,13,57,25,0,0,0,0,0
1570545843406.25,14,57,26,0,0,0,0,0
1570545843437.5,16,57,26,0,0,0,0,0
1570545843468.75,17,57,25,0,0,0,0,0
1570545843500,16,57,24,0,0,0,0,0
1570545843531.25,17,58,25,0,0,0,0,0
1570545843562.5,18,57,26,0,0,0,0,0
1570545843593.75,16,56,26,0,0,0,0,0
1570545843625,15,56,26,0,0,0,0,0
1570545843656.25,17,56,26,0,0,0,0,0
1570545843687.5,18,56,26,0,0,0,0,0
1570545843718.75,19,56,25,0,0,0,0,0
1570545843750,20,56,25,0,0,0,0,0
1570545843781.25,20,56,26,0,0,0,0,0
1570545843812.5,20,56,26,0,0,0,0,0
1570545843843.75,20,56,26,0,0,0,0,0
1570545843875,20,56,26,0,0,0,0,0
1570545843906.25,20,56,26,0,0,0,0,0
1570545843937.5,21,56,26,0,0,0,0,0
1570545843968.75,20,56,26,0,0,0,0,0
1570545844000,16,56,23,0,0,0,0,0
1570545844031.25,15,55,23,0,0,0,0,0
1570545844062.5,19,55,26,0,0,0,0,0
1570545844093.75,23,55,27,0,0,0,0,0
1570545844125,25,55,27,0,0,0,0,0
1570545844156.25,24,55,26,0,0,0,0,0
1570545844187.5,22,56,25,0,0,0,0,0
1570545844218.75,21,54,23,0,0,0,0,0
1570545844250,21,55,24,0,0,0,0,0
1570545844281.25,22,55,24,0,0,0,0,0
1570545844312.5,22,55,24,0,0,0,0,0
1570545844343.75,23,55,24,0,0,0,0,0
1570545844375,25,55,25,0,0,0,0,0
1570545844406.25,26,54,25,0,0,0,0,0
1570545844437.5,28,54,25,0,0,0,0,0
1570545844468.75,24,54,22,0,0,0,0,0
1570545844500,23,54,21,0,0,0,0,0
1570545844531.25,24,54,22,0,0,0,0,0
1570545844562.5,26,55,23,0,0,0,0,0
1570545844593.75,28,54,25,0,0,0,0,0
1570545844625,27,54,24,0,0,0,0,0
1570545844656.25,25,54,23,0,0,0,0,0
1570545844687.5,24,54,23,0,0,0,0,0
1570545844718.75,25,54,22,0,0,0,0,0
1570545844750,27,54,23,0,0,0,0,0
1570545844781.25,28,53,24,0,0,0,0,0
1570545844812.5,28,53,24,0,0,0,0,0
1570545844843.75,27,53,24,0,0,0,0,0
1570545844875,27,53,24,0,0,0,0,0
1570545844906.25,27,54,24,0,0,0,0,0
1570545844937.5,26,53,24,0,0,0,0,0
1570545844968.75,26,52,23,0,0,0,0,0
1570545845000,28,52,23,0,0,0,0,0
1570545845031.25,29,52,23,0,0,0,0,0
1570545845062.5,29,52,23,0,0,0,0,0
1570545845093.75,30,52,23,0,0,0,0,0
1570545845125,29,52,22,0,0,0,0,0
1570545845156.25,29,52,22,0,0,0,0,0
1570545845187.5,29,52,22,0,0,0,0,0
1570545845218.75,30,52,21,0,0,0,0,0
1570545845250,31,52,20,0,0,0,0,0
1570545845281.25,33,52,20,0,0,0,0,0
1570545845312.5,33,52,20,0,0,0,0,0
1570545845343.75,33,53,18,0,0,0,0,0
1570545845375,34,52,17,0,0,0,0,0
1570545845406.25,29,55,21,0,0,0,0,0
1570545845437.5,26,53,19,0,0,0,0,0
1570545845468.75,25,53,21,0,0,0,0,0
1570545845500,26,54,25,0,0,0,0,0
1570545845531.25,26,54,25,0,0,0,0,0
1570545845562.5,30,51,22,0,0,0,0,0
1570545845593.75,33,50,19,0,0,0,0,0
1570545845625,35,50,19,0,0,0,0,0
1570545845656.25,34,50,20,0,0,0,0,0
1570545845687.5,31,50,19,0,0,0,0,0
1570545845718.75,30,51,19,0,0,0,0,0
1570545845750,38,52,19,0,0,0,0,0
1570545845781.25,39,50,17,0,0,0,0,0
1570545845812.5,41,51,13,0,0,0,0,0
1570545845843.75,35,51,22,0,0,0,0,0
1570545845875,28,53,25,0,0,0,0,0
1570545845906.25,17,54,28,0,0,0,0,0
1570545845937.5,12,54,29,0,0,0,0,0
1570545845968.75,15,51,17,0,0,0,0,0
1570545846000,23,49,15,0,0,0,0,0
1570545846031.25,33,51,23,0,0,0,0,0
1570545846062.5,33,50,24,0,0,0,0,0
1570545846093.75,24,49,18,0,0,0,0,0
1570545846125,33,48,20,0,0,0,0,0
1570545846156.25,43,45,23,0,0,0,0,0
1570545846187.5,37,44,20,0,0,0,0,0
1570545846218.75,37,42,14,0,0,0,0,0
1570545846250,45,42,10,0,0,0,0,0
1570545846281.25,50,40,15,0,0,0,0,0
1570545846312.5,71,37,19,0,0,0,0,0
1570545846343.75,72,34,18,0,0,0,0,0
1570545846375,66,33,19,0,0,0,0,0
1570545846406.25,63,34,14,0,0,0,0,0
1570545846437.5,56,42,-1,0,0,0,0,0
1570545846468.75,39,44,14,0,0,0,0,0
1570545846500,68,34,21,0,0,0,0,0
1570545846531.25,90,35,19,0,0,0,0,0
1570545846562.5,49,30,18,0,0,0,0,0
1570545846593.75,30,41,9,0,0,0,0,0
1570545846625,31,48,-4,0,0,0,0,0
1570545846656.25,-35,61,-27,0,0,0,0,0
1570545846687.5,-37,61,-11,0,0,0,0,0
1570545846718.75,-18,62,6,0,0,0,0,0
1570545846750,-4,60,12,0,0,0,0,0
1570545846781.25,14,58,22,0,0,0,0,0
1570545846812.5,21,59,26,0,0,0,0,0
1570545846843.75,26,60,25,0,0,0,0,0
1570545846875,28,61,25,0,0,0,0,0
1570545846906.25,27,61,30,0,0,0,0,0
1570545846937.5,23,61,29,0,0,0,0,0
1570545846968.75,15,58,18,0,0,0,0,0
1570545847000,1,58,15,0,0,0,0,0
1570545847031.25,-4,59,14,0,0,0,0,0
1570545847062.5,-2,61,17,0,0,0,0,0
1570545847093.75,-3,62,17,0,0,0,0,0
1570545847125,-5,63,12,0,0,0,0,0
1570545847156.25,-4,62,10,0,0,0,0,0
1570545847187.5,-1,61,13,0,0,0,0,0
1570545847218.75,1,60,14,0,0,0,0,0
1570545847250,6,59,19,0,0,0,0,0
1570545847281.25,9,58,19,0,0,0,0,0
1570545847312.5,12,56,16,0,0,0,0,0
1570545847343.75,19,57,29,0,0,0,0,0
1570545847375,19,60,33,0,0,0,0,0
1570545847406.25,20,57,25,0,0,0,0,0
1570545847437.5,24,56,22,0,0,0,0,0
1570545847468.75,26,54,24,0,0,0,0,0
1570545847500,25,52,21,0,0,0,0,0
1570545847531.25,22,50,15,0,0,0,0,0
1570545847562.5,26,52,11,0,0,0,0,0
1570545847593.75,37,49,20,0,0,0,0,0
1570545847625,35,46,21,0,0,0,0,0
1570545847656.25,47,44,29,0,0,0,0,0
1570545847687.5,50,44,31,0,0,0,0,0
1570545847718.75,59,47,23,0,0,0,0,0
1570545847750,45,46,21,0,0,0,0,0
1570545847781.25,32,50,4,0,0,0,0,0
1570545847812.5,37,50,0,0,0,0,0,0
1570545847843.75,64,42,18,0,0,0,0,0
1570545847875,53,52,19,0,0,0,0,0
1570545847906.25,50,48,14,0,0,0,0,0
1570545847937.5,41,49,11,0,0,0,0,0
1570545847968.75,31,52,4,0,0,0,0,0
1570545848000,37,59,-11,0,0,0,0,0
1570545848031.25,48,55,-8,0,0,0,0,0
1570545848062.5,27,50,5,0,0,0,0,0
1570545848093.75,-22,57,-18,0,0,0,0,0
1570545848125,-68,58,31,0,0,0,0,0
1570545848156.25,-9,61,53,0,0,0,0,0
1570545848187.5,-1,48,28,0,0,0,0,0
1570545848218.75,19,51,30,0,0,0,0,0
1570545848250,30,53,35,0,0,0,0,0
1570545848281.25,23,55,27,0,0,0,0,0
1570545848312.5,19,54,27,0,0,0,0,0
1570545848343.75,13,55,26,0,0,0,0,0
1570545848375,5,58,21,0,0,0,0,0
1570545848406.25,8,57,6,0,0,0,0,0
1570545848437.5,18,54,4,0,0,0,0,0
1570545848468.75,46,43,16,0,0,0,0,0
1570545848500,50,36,34,0,0,0,0,0
1570545848531.25,124,40,47,0,0,0,0,0
1570545848562.5,83,31,40,0,0,0,0,0
1570545848593.75,28,46,10,0,0,0,0,0
1570545848625,29,50,-2,0,0,0,0,0
1570545848656.25,30,51,9,0,0,0,0,0
1570545848687.5,16,52,23,0,0,0,0,0
1570545848718.75,3,55,25,0,0,0,0,0
1570545848750,27,55,24,0,0,0,0,0
1570545848781.25,41,54,26,0,0,0,0,0
1570545848812.5,32,51,24,0,0,0,0,0
1570545848843.75,28,51,21,0,0,0,0,0
1570545848875,19,54,13,0,0,0,0,0
1570545848906.25,20,56,13,0,0,0,0,0
1570545848937.5,25,54,19,0,0,0,0,0
1570545848968.75,24,54,19,0,0,0,0,0
1570545849000,28,55,22,0,0,0,0,0
1570545849031.25,28,53,23,0,0,0,0,0
1570545849062.5,33,55,24,0,0,0,0,0
1570545849093.75,36,51,22,0,0,0,0,0
1570545849125,34,51,22,0,0,0,0,0
1570545849156.25,22,54,20,0,0,0,0,0
1570545849187.5,12,51,19,0,0,0,0,0
1570545849218.75,-22,69,33,0,0,0,0,0
1570545849250,-12,56,22,0,0,0,0,0
1570545849281.25,16,57,13,0,0,0,0,0
1570545849312.5,13,58,10,0,0,0,0,0
1570545849343.75,17,44,1,0,0,0,0,0
1570545849375,32,39,9,0,0,0,0,0
1570545849406.25,67,34,15,0,0,0,0,0
1570545849437.5,76,28,27,0,0,0,0,0
1570545849468.75,95,34,38,0,0,0,0,0
1570545849500,52,41,19,0,0,0,0,0
1570545849531.25,33,46,11,0,0,0,0,0
1570545849562.5,52,45,16,0,0,0,0,0
1570545849593.75,50,41,17,0,0,0,0,0
1570545849625,52,42,16,0,0,0,0,0
1570545849656.25,37,42,20,0,0,0,0,0
1570545849687.5,39,47,20,0,0,0,0,0
1570545849718.75,38,47,21,0,0,0,0,0
1570545849750,26,51,16,0,0,0,0,0
1570545849781.25,27,52,16,0,0,0,0,0
1570545849812.5,16,54,15,0,0,0,0,0
1570545849843.75,18,53,13,0,0,0,0,0
1570545849875,4,52,16,0,0,0,0,0
1570545849906.25,-11,55,24,0,0,0,0,0
1570545849937.5,-7,57,22,0,0,0,0,0
1570545849968.75,42,52,7,0,0,0,0,0
1570545850000,69,50,8,0,0,0,0,0
1570545850031.25,31,43,22,0,0,0,0,0
1570545850062.5,16,47,19,0,0,0,0,0
1570545850093.75,38,44,5,0,0,0,0,0
1570545850125,49,35,13,0,0,0,0,0
1570545850156.25,85,27,32,0,0,0,0,0
1570545850187.5,91,27,32,0,0,0,0,0
1570545850218.75,51,38,15,0,0,0,0,0
1570545850250,51,42,20,0,0,0,0,0
1570545850281.25,56,40,20,0,0,0,0,0
1570545850312.5,38,41,13,0,0,0,0,0
1570545850343.75,37,42,17,0,0,0,0,0
1570545850375,54,42,20,0,0,0,0,0
1570545850406.25,62,40,29,0,0,0,0,0
1570545850437.5,37,46,12,0,0,0,0,0
1570545850468.75,41,47,10,0,0,0,0,0
1570545850500,12,50,4,0,0,0,0,0
1570545850531.25,9,55,3,0,0,0,0,0
1570545850562.5,-9,58,12,0,0,0,0,0
1570545850593.75,-17,60,9,0,0,0,0,0
1570545850625,4,55,25,0,0,0,0,0
1570545850656.25,26,58,12,0,0,0,0,0
1570545850687.5,40,46,17,0,0,0,0,0
1570545850718.75,26,40,21,0,0,0,0,0
1570545850750,64,41,15,0,0,0,0,0
1570545850781.25,81,32,33,0,0,0,0,0
1570545850812.5,87,33,31,0,0,0,0,0
1570545850843.75,61,36,38,0,0,0,0,0
1570545850875,41,40,29,0,0,0,0,0
1570545850906.25,18,45,-4,0,0,0,0,0
1570545850937.5,35,50,7,0,0,0,0,0
1570545850968.75,55,41,29,0,0,0,0,0
1570545851000,53,44,19,0,0,0,0,0
1570545851031.25,34,47,20,0,0,0,0,0
1570545851062.5,10,48,12,0,0,0,0,0
1570545851093.75,-25,64,-2,0,0,0,0,0
1570545851125,-16,55,37,0,0,0,0,0
1570545851156.25,-3,52,27,0,0,0,0,0
1570545851187.5,12,42,10,0,0,0,0,0
1570545851218.75,35,44,14,0,0,0,0,0
1570545851250,61,37,17,0,0,0,0,0
1570545851281.25,91,35,28,0,0,0,0,0
1570545851312.5,119,31,46,0,0,0,0,0
1570545851343.75,81,29,38,0,0,0,0,0
1570545851375,26,41,15,0,0,0,0,0
1570545851406.25,31,46,12,0,0,0,0,0
1570545851437.5,29,49,12,0,0,0,0,0
1570545851468.75,45,48,6,0,0,0,0,0
1570545851500,29,46,24,0,0,0,0,0
1570545851531.25,-17,60,2,0,0,0,0,0
1570545851562.5,-28,63,11,0,0,0,0,0
1570545851593.75,-20,57,32,0,0,0,0,0
1570545851625,-5,52,35,0,0,0,0,0
1570545851656.25,27,54,13,0,0,0,0,0
1570545851687.5,24,60,7,0,0,0,0,0
1570545851718.75,-13,34,36,0,0,0,0,0
1570545851750,66,49,23,0,0,0,0,0
1570545851781.25,80,35,35,0,0,0,0,0
1570545851812.5,109,39,48,0,0,0,0,0
1570545851843.75,76,33,34,0,0,0,0,0
1570545851875,23,44,16,0,0,0,0,0
1570545851906.25,28,45,14,0,0,0,0,0
1570545851937.5,55,45,23,0,0,0,0,0
1570545851968.75,25,45,17,0,0,0,0,0
1570545852000,-25,64,3,0,0,0,0,0
1570545852031.25,-16,66,17,0,0,0,0,0
1570545852062.5,-17,54,37,0,0,0,0,0
1570545852093.75,1,50,39,0,0,0,0,0
1570545852125,11,61,10,0,0,0,0,0
1570545852156.25,-21,55,-2,0,0,0,0,0
1570545852187.5,67,38,24,0,0,0,0,0
1570545852218.75,106,32,35,0,0,0,0,0
1570545852250,105,33,38,0,0,0,0,0
1570545852281.25,63,34,34,0,0,0,0,0
1570545852312.5,45,40,23,0,0,0,0,0
1570545852343.75,30,45,15,0,0,0,0,0
1570545852375,38,48,9,0,0,0,0,0
1570545852406.25,28,44,26,0,0,0,0,0
1570545852437.5,-20,50,4,0,0,0,0,0
1570545852468.75,-25,66,6,0,0,0,0,0
1570545852500,-16,64,26,0,0,0,0,0
1570545852531.25,5,52,31,0,0,0,0,0
1570545852562.5,16,51,17,0,0,0,0,0
1570545852593.75,19,48,8,0,0,0,0,0
1570545852625,-16,34,5,0,0,0,0,0
1570545852656.25,127,34,41,0,0,0,0,0
1570545852687.5,116,23,64,0,0,0,0,0
1570545852718.75,54,29,31,0,0,0,0,0
1570545852750,21,48,13,0,0,0,0,0
1570545852781.25,30,51,14,0,0,0,0,0
1570545852812.5,47,50,16,0,0,0,0,0
1570545852843.75,40,43,30,0,0,0,0,0
1570545852875,-24,52,10,0,0,0,0,0
1570545852906.25,-26,56,21,0,0,0,0,0
1570545852937.5,-6,56,25,0,0,0,0,0
1570545852968.75,2,54,26,0,0,0,0,0
1570545853000,24,47,29,0,0,0,0,0
1570545853031.25,18,45,24,0,0,0,0,0
1570545853062.5,25,44,17,0,0,0,0,0
1570545853093.75,75,34,50,0,0,0,0,0
1570545853125,127,22,58,0,0,0,0,0
1570545853156.25,30,34,32,0,0,0,0,0
1570545853187.5,11,44,16,0,0,0,0,0
1570545853218.75,54,55,16,0,0,0,0,0
1570545853250,61,55,-3,0,0,0,0,0
1570545853281.25,-26,47,11,0,0,0,0,0
1570545853312.5,-51,48,29,0,0,0,0,0
1570545853343.75,-23,53,41,0,0,0,0,0
1570545853375,0,50,25,0,0,0,0,0
1570545853406.25,25,45,13,0,0,0,0,0
1570545853437.5,22,42,17,0,0,0,0,0
1570545853468.75,127,34,57,0,0,0,0,0
1570545853500,127,28,70,0,0,0,0,0
1570545853531.25,21,31,32,0,0,0,0,0
1570545853562.5,29,44,17,0,0,0,0,0
1570545853593.75,90,56,6,0,0,0,0,0
1570545853625,64,39,-1,0,0,0,0,0
1570545853656.25,-11,21,7,0,0,0,0,0
1570545853687.5,-44,56,17,0,0,0,0,0
1570545853718.75,-45,59,22,0,0,0,0,0
1570545853750,-20,58,35,0,0,0,0,0
1570545853781.25,-7,56,36,0,0,0,0,0
1570545853812.5,3,51,36,0,0,0,0,0
1570545853843.75,3,53,31,0,0,0,0,0
1570545853875,-6,56,29,0,0,0,0,0
1570545853906.25,-11,56,40,0,0,0,0,0
1570545853937.5,-13,57,40,0,0,0,0,0
1570545853968.75,-29,59,30,0,0,0,0,0
1570545854000,-34,60,20,0,0,0,0,0
1570545854031.25,-31,61,12,0,0,0,0,0
1570545854062.5,-26,60,12,0,0,0,0,0
1570545854093.75,-17,59,14,0,0,0,0,0
1570545854125,-12,58,16,0,0,0,0,0
1570545854156.25,-3,54,21,0,0,0,0,0
1570545854187.5,5,53,23,0,0,0,0,0
1570545854218.75,13,53,22,0,0,0,0,0
1570545854250,14,52,21,0,0,0,0,0
1570545854281.25,18,52,22,0,0,0,0,0
1570545854312.5,22,49,8,0,0,0,0,0
1570545854343.75,36,46,18,0,0,0,0,0
1570545854375,64,36,51,0,0,0,0,0
1570545854406.25,80,44,42,0,0,0,0,0
1570545854437.5,86,47,29,0,0,0,0,0
1570545854468.75,76,42,28,0,0,0,0,0
1570545854500,31,42,16,0,0,0,0,0
1570545854531.25,3,47,7,0,0,0,0,0
1570545854562.5,-32,64,-17,0,0,0,0,0
1570545854593.75,-40,76,2,0,0,0,0,0
1570545854625,14,41,53,0,0,0,0,0
1570545854656.25,-8,55,16,0,0,0,0,0
1570545854687.5,-2,58,-1,0,0,0,0,0
1570545854718.75,46,39,20,0,0,0,0,0
1570545854750,103,36,24,0,0,0,0,0
1570545854781.25,127,25,63,0,0,0,0,0
1570545854812.5,90,29,44,0,0,0,0,0
1570545854843.75,24,44,12,0,0,0,0,0
1570545854875,19,43,15,0,0,0,0,0
1570545854906.25,60,48,20,0,0,0,0,0
1570545854937.5,29,45,23,0,0,0,0,0
1570545854968.75,-65,65,-18,0,0,0,0,0
1570545855000,-61,73,3,0,0,0,0,0
1570545855031.25,20,42,57,0,0,0,0,0
1570545855062.5,19,54,11,0,0,0,0,0
1570545855093.75,19,41,-11,0,0,0,0,0
1570545855125,119,26,25,0,0,0,0,0
1570545855156.25,127,16,64,0,0,0,0,0
1570545855187.5,83,24,44,0,0,0,0,0
1570545855218.75,57,34,12,0,0,0,0,0
1570545855250,15,46,0,0,0,0,0,0
1570545855281.25,45,53,-5,0,0,0,0,0
1570545855312.5,-12,47,7,0,0,0,0,0
1570545855343.75,-48,62,-4,0,0,0,0,0
1570545855375,-16,62,28,0,0,0,0,0
1570545855406.25,16,42,72,0,0,0,0,0
1570545855437.5,-15,50,24,0,0,0,0,0
1570545855468.75,15,43,28,0,0,0,0,0
1570545855500,25,57,7,0,0,0,0,0
1570545855531.25,55,46,11,0,0,0,0,0
1570545855562.5,75,39,17,0,0,0,0,0
1570545855593.75,116,25,52,0,0,0,0,0
1570545855625,86,21,67,0,0,0,0,0
1570545855656.25,17,42,27,0,0,0,0,0
1570545855687.5,16,46,12,0,0,0,0,0
1570545855718.75,56,46,24,0,0,0,0,0
1570545855750,8,46,12,0,0,0,0,0
1570545855781.25,-50,68,-9,0,0,0,0,0
1570545855812.5,-37,68,10,0,0,0,0,0
1570545855843.75,3,41,66,0,0,0,0,0
1570545855875,-1,45,38,0,0,0,0,0
1570545855906.25,10,52,0,0,0,0,0,0
1570545855937.5,16,37,11,0,0,0,0,0
1570545855968.75,81,31,23,0,0,0,0,0
1570545856000,127,21,70,0,0,0,0,0
1570545856031.25,106,20,73,0,0,0,0,0
1570545856062.5,45,37,18,0,0,0,0,0
1570545856093.75,30,39,9,0,0,0,0,0
1570545856125,32,46,10,0,0,0,0,0
1570545856156.25,-5,46,9,0,0,0,0,0
1570545856187.5,-53,72,-11,0,0,0,0,0
1570545856218.75,-30,64,27,0,0,0,0,0
1570545856250,-15,44,49,0,0,0,0,0
1570545856281.25,-3,48,28,0,0,0,0,0
1570545856312.5,-2,35,4,0,0,0,0,0
1570545856343.75,82,35,4,0,0,0,0,0
1570545856375,127,29,19,0,0,0,0,0
1570545856406.25,123,14,85,0,0,0,0,0
1570545856437.5,62,27,69,0,0,0,0,0
1570545856468.75,55,35,24,0,0,0,0,0
1570545856500,32,39,12,0,0,0,0,0
1570545856531.25,12,50,-6,0,0,0,0,0
1570545856562.5,-4,49,-4,0,0,0,0,0
1570545856593.75,-24,67,8,0,0,0,0,0
1570545856625,-24,63,13,0,0,0,0,0
1570545856656.25,-4,37,66,0,0,0,0,0
1570545856687.5,-10,53,41,0,0,0,0,0
1570545856718.75,1,36,21,0,0,0,0,0
1570545856750,62,35,13,0,0,0,0,0
1570545856781.25,109,34,20,0,0,0,0,0
1570545856812.5,127,21,66,0,0,0,0,0
1570545856843.75,89,23,61,0,0,0,0,0
1570545856875,49,35,22,0,0,0,0,0
1570545856906.25,22,35,10,0,0,0,0,0
1570545856937.5,15,47,0,0,0,0,0,0
1570545856968.75,-8,49,4,0,0,0,0,0
1570545857000,-32,69,1,0,0,0,0,0
1570545857031.25,-40,73,-3,0,0,0,0,0
1570545857062.5,4,36,87,0,0,0,0,0
1570545857093.75,-16,42,48,0,0,0,0,0
1570545857125,-14,48,21,0,0,0,0,0
1570545857156.25,27,38,19,0,0,0,0,0
1570545857187.5,71,43,22,0,0,0,0,0
1570545857218.75,121,30,43,0,0,0,0,0
1570545857250,109,25,50,0,0,0,0,0
1570545857281.25,27,37,47,0,0,0,0,0
1570545857312.5,33,43,32,0,0,0,0,0
1570545857343.75,43,44,16,0,0,0,0,0
1570545857375,22,44,18,0,0,0,0,0
1570545857406.25,-43,57,-11,0,0,0,0,0
1570545857437.5,-65,68,-9,0,0,0,0,0
1570545857468.75,6,50,75,0,0,0,0,0
1570545857500,4,30,101,0,0,0,0,0
1570545857531.25,-28,48,26,0,0,0,0,0
1570545857562.5,-16,53,30,0,0,0,0,0
1570545857593.75,-6,56,17,0,0,0,0,0
1570545857625,48,41,16,0,0,0,0,0
1570545857656.25,79,39,25,0,0,0,0,0
1570545857687.5,104,31,50,0,0,0,0,0
1570545857718.75,84,29,74,0,0,0,0,0
1570545857750,42,41,37,0,0,0,0,0
1570545857781.25,48,41,23,0,0,0,0,0
1570545857812.5,34,44,17,0,0,0,0,0
1570545857843.75,6,44,4,0,0,0,0,0
1570545857875,-70,67,-5,0,0,0,0,0
1570545857906.25,-52,74,25,0,0,0,0,0
1570545857937.5,-12,36,84,0,0,0,0,0
1570545857968.75,-27,46,30,0,0,0,0,0
1570545858000,-2,43,26,0,0,0,0,0
1570545858031.25,14,54,25,0,0,0,0,0
1570545858062.5,31,53,22,0,0,0,0,0
1570545858093.75,55,42,23,0,0,0,0,0
1570545858125,61,41,31,0,0,0,0,0
1570545858156.25,71,39,43,0,0,0,0,0
1570545858187.5,82,40,55,0,0,0,0,0
1570545858218.75,47,42,32,0,0,0,0,0
1570545858250,46,44,25,0,0,0,0,0
1570545858281.25,33,46,22,0,0,0,0,0
1570545858312.5,18,44,21,0,0,0,0,0
1570545858343.75,-8,50,12,0,0,0,0,0
1570545858375,-34,61,30,0,0,0,0,0
1570545858406.25,-32,58,39,0,0,0,0,0
1570545858437.5,-31,49,38,0,0,0,0,0
1570545858468.75,-20,50,39,0,0,0,0,0
1570545858500,13,51,33,0,0,0,0,0
1570545858531.25,15,53,34,0,0,0,0,0
1570545858562.5,6,59,15,0,0,0,0,0
1570545858593.75,6,54,5,0,0,0,0,0
1570545858625,64,38,59,0,0,0,0,0
1570545858656.25,88,38,73,0,0,0,0,0
1570545858687.5,40,41,45,0,0,0,0,0
1570545858718.75,29,44,33,0,0,0,0,0
1570545858750,21,49,31,0,0,0,0,0
1570545858781.25,13,48,17,0,0,0,0,0
1570545858812.5,-2,52,8,0,0,0,0,0
1570545858843.75,-21,54,19,0,0,0,0,0
1570545858875,-37,58,33,0,0,0,0,0
1570545858906.25,-60,50,39,0,0,0,0,0
1570545858937.5,-51,47,29,0,0,0,0,0
1570545858968.75,-18,50,35,0,0,0,0,0
1570545859000,9,51,33,0,0,0,0,0
1570545859031.25,21,57,24,0,0,0,0,0
1570545859062.5,28,55,27,0,0,0,0,0
1570545859093.75,38,53,32,0,0,0,0,0
1570545859125,29,55,32,0,0,0,0,0
1570545859156.25,12,54,31,0,0,0,0,0
1570545859187.5,5,56,29,0,0,0,0,0
1570545859218.75,-2,58,26,0,0,0,0,0
1570545859250,1,56,27,0,0,0,0,0
1570545859281.25,17,48,34,0,0,0,0,0
1570545859312.5,26,48,29,0,0,0,0,0
1570545859343.75,25,46,23,0,0,0,0,0
1570545859375,19,49,27,0,0,0,0,0
1570545859406.25,26,48,29,0,0,0,0,0
1570545859437.5,21,46,24,0,0,0,0,0
1570545859468.75,32,44,15,0,0,0,0,0
1570545859500,86,38,24,0,0,0,0,0
1570545859531.25,110,31,40,0,0,0,0,0
1570545859562.5,60,36,31,0,0,0,0,0
1570545859593.75,24,43,27,0,0,0,0,0
1570545859625,30,47,22,0,0,0,0,0
1570545859656.25,42,47,18,0,0,0,0,0
1570545859687.5,31,45,23,0,0,0,0,0
1570545859718.75,2,51,15,0,0,0,0,0
1570545859750,-1,51,16,0,0,0,0,0
1570545859781.25,-15,62,26,0,0,0,0,0
1570545859812.5,-23,62,26,0,0,0,0,0
1570545859843.75,-7,53,33,0,0,0,0,0
1570545859875,8,54,29,0,0,0,0,0
1570545859906.25,21,50,28,0,0,0,0,0
1570545859937.5,7,54,17,0,0,0,0,0
1570545859968.75,15,52,13,0,0,0,0,0
1570545860000,23,37,22,0,0,0,0,0
1570545860031.25,34,31,27,0,0,0,0,0
1570545860062.5,106,31,39,0,0,0,0,0
1570545860093.75,123,31,50,0,0,0,0,0
1570545860125,60,33,35,0,0,0,0,0
1570545860156.25,30,37,25,0,0,0,0,0
1570545860187.5,29,42,16,0,0,0,0,0
1570545860218.75,30,46,16,0,0,0,0,0
1570545860250,23,45,20,0,0,0,0,0
1570545860281.25,0,50,24,0,0,0,0,0
1570545860312.5,-22,60,17,0,0,0,0,0
1570545860343.75,-22,62,24,0,0,0,0,0
1570545860375,-1,52,27,0,0,0,0,0
1570545860406.25,14,47,12,0,0,0,0,0
1570545860437.5,19,43,11,0,0,0,0,0
1570545860468.75,48,35,29,0,0,0,0,0
1570545860500,85,33,38,0,0,0,0,0
1570545860531.25,111,31,33,0,0,0,0,0
1570545860562.5,97,32,33,0,0,0,0,0
1570545860593.75,49,36,30,0,0,0,0,0
1570545860625,40,43,20,0,0,0,0,0
1570545860656.25,22,48,3,0,0,0,0,0
1570545860687.5,31,49,5,0,0,0,0,0
1570545860718.75,6,53,12,0,0,0,0,0
1570545860750,-10,58,12,0,0,0,0,0
1570545860781.25,-11,58,32,0,0,0,0,0
1570545860812.5,7,50,31,0,0,0,0,0
1570545860843.75,7,51,12,0,0,0,0,0
1570545860875,19,34,23,0,0,0,0,0
1570545860906.25,40,38,30,0,0,0,0,0
1570545860937.5,92,33,35,0,0,0,0,0
1570545860968.75,108,28,42,0,0,0,0,0
1570545861000,76,31,41,0,0,0,0,0
1570545861031.25,43,34,33,0,0,0,0,0
1570545861062.5,31,42,20,0,0,0,0,0
1570545861093.75,27,47,11,0,0,0,0,0
1570545861125,16,49,4,0,0,0,0,0
1570545861156.25,-1,55,8,0,0,0,0,0
1570545861187.5,-14,62,14,0,0,0,0,0
1570545861218.75,9,51,33,0,0,0,0,0
1570545861250,14,49,31,0,0,0,0,0
1570545861281.25,14,37,24,0,0,0,0,0
1570545861312.5,28,37,26,0,0,0,0,0
1570545861343.75,84,37,36,0,0,0,0,0
1570545861375,105,34,43,0,0,0,0,0
1570545861406.25,94,26,50,0,0,0,0,0
1570545861437.5,47,24,37,0,0,0,0,0
1570545861468.75,-1,41,8,0,0,0,0,0
1570545861500,7,54,-6,0,0,0,0,0
1570545861531.25,26,58,-1,0,0,0,0,0
1570545861562.5,16,56,7,0,0,0,0,0
1570545861593.75,-19,61,13,0,0,0,0,0
1570545861625,7,48,50,0,0,0,0,0
1570545861656.25,10,43,43,0,0,0,0,0
1570545861687.5,24,39,28,0,0,0,0,0
1570545861718.75,52,39,23,0,0,0,0,0
1570545861750,102,35,44,0,0,0,0,0
1570545861781.25,109,32,57,0,0,0,0,0
1570545861812.5,41,35,33,0,0,0,0,0
1570545861843.75,36,43,26,0,0,0,0,0
1570545861875,44,51,2,0,0,0,0,0
1570545861906.25,38,49,-2,0,0,0,0,0
1570545861937.5,-35,59,-6,0,0,0,0,0
1570545861968.75,-19,56,41,0,0,0,0,0
1570545862000,1,48,50,0,0,0,0,0
1570545862031.25,18,35,27,0,0,0,0,0
1570545862062.5,43,30,26,0,0,0,0,0
1570545862093.75,110,32,47,0,0,0,0,0
1570545862125,108,34,53,0,0,0,0,0
1570545862156.25,45,31,33,0,0,0,0,0
1570545862187.5,33,41,31,0,0,0,0,0
1570545862218.75,38,47,13,0,0,0,0,0
1570545862250,45,48,5,0,0,0,0,0
1570545862281.25,6,51,-4,0,0,0,0,0
1570545862312.5,-45,62,-16,0,0,0,0,0
1570545862343.75,-13,58,39,0,0,0,0,0
1570545862375,-10,40,25,0,0,0,0,0
1570545862406.25,1,26,19,0,0,0,0,0
1570545862437.5,93,16,12,0,0,0,0,0
1570545862468.75,127,29,18,0,0,0,0,0
1570545862500,116,25,64,0,0,0,0,0
1570545862531.25,60,32,46,0,0,0,0,0
1570545862562.5,32,33,30,0,0,0,0,0
1570545862593.75,23,41,19,0,0,0,0,0
1570545862625,13,51,-8,0,0,0,0,0
1570545862656.25,8,52,-12,0,0,0,0,0
1570545862687.5,-1,61,-1,0,0,0,0,0
1570545862718.75,-6,60,4,0,0,0,0,0
1570545862750,32,50,21,0,0,0,0,0
1570545862781.25,31,44,27,0,0,0,0,0
1570545862812.5,37,41,27,0,0,0,0,0
1570545862843.75,55,36,28,0,0,0,0,0
1570545862875,59,34,38,0,0,0,0,0
1570545862906.25,53,39,40,0,0,0,0,0
1570545862937.5,44,41,32,0,0,0,0,0
1570545862968.75,36,44,21,0,0,0,0,0
1570545863000,35,45,19,0,0,0,0,0
1570545863031.25,37,43,19,0,0,0,0,0
1570545863062.5,39,42,21,0,0,0,0,0
1570545863093.75,40,42,27,0,0,0,0,0
1570545863125,41,41,29,0,0,0,0,0
1570545863156.25,41,41,32,0,0,0,0,0
1570545863187.5,39,42,32,0,0,0,0,0
1570545863218.75,36,42,31,0,0,0,0,0
1570545863250,39,42,26,0,0,0,0,0
1570545863281.25,42,41,23,0,0,0,0,0
1570545863312.5,46,41,19,0,0,0,0,0
1570545863343.75,45,42,18,0,0,0,0,0
1570545863375,44,42,19,0,0,0,0,0
1570545863406.25,44,43,19,0,0,0,0,0
1570545863437.5,40,42,25,0,0,0,0,0
1570545863468.75,40,43,27,0,0,0,0,0
1570545863500,39,43,26,0,0,0,0,0
1570545863531.25,39,42,24,0,0,0,0,0
1570545863562.5,43,43,23,0,0,0,0,0
1570545863593.75,42,43,23,0,0,0,0,0
1570545863625,38,43,24,0,0,0,0,0
1570545863656.25,45,43,23,0,0,0,0,0
1570545863687.5,57,43,25,0,0,0,0,0
1570545863718.75,48,39,27,0,0,0,0,0
1570545863750,43,40,25,0,0,0,0,0
1570545863781.25,37,44,21,0,0,0,0,0
1570545863812.5,37,45,22,0,0,0,0,0
1570545863843.75,32,46,26,0,0,0,0,0
1570545863875,31,46,28,0,0,0,0,0
1570545863906.25,26,47,27,0,0,0,0,0
1570545863937.5,28,48,26,0,0,0,0,0
1570545863968.75,28,48,26,0,0,0,0,0
1570545864000,33,49,29,0,0,0,0,0
1570545864031.25,36,48,31,0,0,0,0,0
1570545864062.5,39,47,28,0,0,0,0,0
1570545864093.75,35,47,24,0,0,0,0,0
1570545864125,25,50,20,0,0,0,0,0
1570545864156.25,22,52,19,0,0,0,0,0
1570545864187.5,17,52,20,0,0,0,0,0
1570545864218.75,21,51,23,0,0,0,0,0
1570545864250,32,49,28,0,0,0,0,0
1570545864281.25,34,49,27,0,0,0,0,0
1570545864312.5,37,49,26,0,0,0,0,0
1570545864343.75,38,49,27,0,0,0,0,0
1570545864375,36,47,28,0,0,0,0,0
1570545864406.25,33,48,27,0,0,0,0,0
1570545864437.5,32,48,26,0,0,0,0,0
1570545864468.75,32,50,25,0,0,0,0,0
1570545864500,31,49,26,0,0,0,0,0
1570545864531.25,30,49,26,0,0,0,0,0
1570545864562.5,30,49,27,0,0,0,0,0
1570545864593.75,32,48,26,0,0,0,0,0
1570545864625,31,48,26,0,0,0,0,0
1570545864656.25,29,48,27,0,0,0,0,0
1570545864687.5,30,49,28,0,0,0,0,0
1570545864718.75,31,48,30,0,0,0,0,0
1570545864750,31,48,31,0,0,0,0,0
1570545864781.25,31,48,30,0,0,0,0,0
1570545864812.5,29,48,31,0,0,0,0,0
1570545864843.75,28,48,32,0,0,0,0,0
1570545864875,27,48,32,0,0,0,0,0
1570545864906.25,27,48,31,0,0,0,0,0
1570545864937.5,29,48,31,0,0,0,0,0
1570545864968.75,30,48,31,0,0,0,0,0
1570545865000,30,48,32,0,0,0,0,0
1570545865031.25,33,48,34,0,0,0,0,0
1570545865062.5,33,48,32,0,0,0,0,0
1570545865093.75,32,47,31,0,0,0,0,0
1570545865125,28,48,27,0,0,0,0,0
1570545865156.25,28,49,26,0,0,0,0,0
1570545865187.5,26,48,25,0,0,0,0,0
1570545865218.75,29,47,29,0,0,0,0,0
1570545865250,31,47,33,0,0,0,0,0
1570545865281.25,31,46,35,0,0,0,0,0
1570545865312.5,30,45,35,0,0,0,0,0
1570545865343.75,31,45,33,0,0,0,0,0
1570545865375,30,46,31,0,0,0,0,0
1570545865406.25,32,47,30,0,0,0,0,0
1570545865437.5,33,47,28,0,0,0,0,0
1570545865468.75,35,47,31,0,0,0,0,0
1570545865500,34,46,31,0,0,0,0,0
1570545865531.25,33,47,25,0,0,0,0,0
1570545865562.5,34,47,22,0,0,0,0,0
1570545865593.75,38,47,16,0,0,0,0,0
1570545865625,38,46,14,0,0,0,0,0
1570545865656.25,39,46,16,0,0,0,0,0
1570545865687.5,40,45,21,0,0,0,0,0
1570545865718.75,40,45,24,0,0,0,0,0
1570545865750,41,45,20,0,0,0,0,0
1570545865781.25,43,45,18,0,0,0,0,0
1570545865812.5,45,44,22,0,0,0,0,0
1570545865843.75,47,44,23,0,0,0,0,0
1570545865875,41,44,21,0,0,0,0,0
1570545865906.25,40,45,21,0,0,0,0,0
1570545865937.5,40,45,25,0,0,0,0,0
1570545865968.75,38,45,27,0,0,0,0,0
1570545866000,44,47,26,0,0,0,0,0
1570545866031.25,41,46,23,0,0,0,0,0
1570545866062.5,39,48,21,0,0,0,0,0
1570545866093.75,33,48,19,0,0,0,0,0
1570545866125,19,50,19,0,0,0,0,0
1570545866156.25,16,52,25,0,0,0,0,0
1570545866187.5,17,52,24,0,0,0,0,0
1570545866218.75,27,51,25,0,0,0,0,0
1570545866250,27,50,24,0,0,0,0,0
1570545866281.25,25,50,25,0,0,0,0,0
1570545866312.5,25,50,24,0,0,0,0,0
1570545866343.75,27,51,21,0,0,0,0,0
1570545866375,32,50,20,0,0,0,0,0
1570545866406.25,39,46,23,0,0,0,0,0
1570545866437.5,30,48,21,0,0,0,0,0
1570545866468.75,19,48,14,0,0,0,0,0
1570545866500,37,42,30,0,0,0,0,0
1570545866531.25,57,37,28,0,0,0,0,0
1570545866562.5,54,33,20,0,0,0,0,0
1570545866593.75,66,34,27,0,0,0,0,0
1570545866625,66,33,28,0,0,0,0,0
1570545866656.25,56,34,28,0,0,0,0,0
1570545866687.5,46,40,23,0,0,0,0,0
1570545866718.75,45,39,19,0,0,0,0,0
1570545866750,41,39,18,0,0,0,0,0
1570545866781.25,26,42,17,0,0,0,0,0
1570545866812.5,43,45,27,0,0,0,0,0
1570545866843.75,48,38,27,0,0,0,0,0
1570545866875,41,40,24,0,0,0,0,0
1570545866906.25,39,37,29,0,0,0,0,0
1570545866937.5,45,38,32,0,0,0,0,0
1570545866968.75,50,42,29,0,0,0,0,0
1570545867000,46,43,26,0,0,0,0,0
1570545867031.25,41,43,24,0,0,0,0,0
1570545867062.5,53,43,27,0,0,0,0,0
1570545867093.75,45,44,23,0,0,0,0,0
1570545867125,45,46,20,0,0,0,0,0
1570545867156.25,21,49,18,0,0,0,0,0
1570545867187.5,8,51,16,0,0,0,0,0
1570545867218.75,-2,55,19,0,0,0,0,0
1570545867250,39,47,44,0,0,0,0,0
1570545867281.25,49,44,45,0,0,0,0,0
1570545867312.5,38,45,32,0,0,0,0,0
1570545867343.75,26,47,28,0,0,0,0,0
1570545867375,16,52,25,0,0,0,0,0
1570545867406.25,15,52,26,0,0,0,0,0
1570545867437.5,23,51,30,0,0,0,0,0
1570545867468.75,26,52,31,0,0,0,0,0
1570545867500,24,51,31,0,0,0,0,0
1570545867531.25,23,51,32,0,0,0,0,0
1570545867562.5,21,49,35,0,0,0,0,0
1570545867593.75,22,49,35,0,0,0,0,0
1570545867625,23,50,34,0,0,0,0,0
1570545867656.25,23,50,32,0,0,0,0,0
1570545867687.5,23,50,33,0,0,0,0,0
1570545867718.75,21,50,33,0,0,0,0,0
1570545867750,21,49,33,0,0,0,0,0
1570545867781.25,19,51,34,0,0,0,0,0
1570545867812.5,18,52,34,0,0,0,0,0
1570545867843.75,18,50,35,0,0,0,0,0
1570545867875,20,49,35,0,0,0,0,0
1570545867906.25,24,52,33,0,0,0,0,0
1570545867937.5,27,52,32,0,0,0,0,0
1570545867968.75,27,52,30,0,0,0,0,0
1570545868000,20,51,31,0,0,0,0,0
1570545868031.25,9,52,32,0,0,0,0,0
1570545868062.5,5,52,35,0,0,0,0,0
1570545868093.75,10,52,36,0,0,0,0,0
1570545868125,20,51,37,0,0,0,0,0
1570545868156.25,21,51,36,0,0,0,0,0
1570545868187.5,18,51,34,0,0,0,0,0
1570545868218.75,17,51,35,0,0,0,0,0
1570545868250,15,53,35,0,0,0,0,0
1570545868281.25,15,53,35,0,0,0,0,0
1570545868312.5,15,53,34,0,0,0,0,0
1570545868343.75,15,53,34,0,0,0,0,0
1570545868375,13,52,34,0,0,0,0,0
1570545868406.25,12,51,35,0,0,0,0,0
1570545868437.5,11,52,35,0,0,0,0,0
1570545868468.75,12,52,35,0,0,0,0,0
1570545868500,12,52,36,0,0,0,0,0
1570545868531.25,12,52,36,0,0,0,0,0
1570545868562.5,11,52,36,0,0,0,0,0
1570545868593.75,12,52,36,0,0,0,0,0
1570545868625,13,52,36,0,0,0,0,0
1570545868656.25,13,52,36,0,0,0,0,0
1570545868687.5,12,52,35,0,0,0,0,0
1570545868718.75,12,52,36,0,0,0,0,0
1570545868750,11,52,35,0,0,0,0,0
1570545868781.25,11,53,36,0,0,0,0,0
1570545868812.5,12,52,36,0,0,0,0,0
1570545868843.75,10,52,36,0,0,0,0,0
1570545868875,9,52,36,0,0,0,0,0
1570545868906.25,9,52,36,0,0,0,0,0
1570545868937.5,9,52,36,0,0,0,0,0
1570545868968.75,10,52,36,0,0,0,0,0
1570545869000,9,53,37,0,0,0,0,0
1570545869031.25,9,52,37,0,0,0,0,0
1570545869062.5,9,52,37,0,0,0,0,0
1570545869093.75,9,52,37,0,0,0,0,0
1570545869125,8,52,37,0,0,0,0,0
1570545869156.25,7,52,36,0,0,0,0,0
1570545869187.5,8,52,37,0,0,0,0,0
1570545869218.75,8,52,38,0,0,0,0,0
1570545869250,8,52,38,0,0,0,0,0
1570545869281.25,8,52,38,0,0,0,0,0
1570545869312.5,9,52,38,0,0,0,0,0
1570545869343.75,8,52,35,0,0,0,0,0
1570545869375,3,52,34,0,0,0,0,0
1570545869406.25,-1,52,37,0,0,0,0,0
1570545869437.5,-1,51,38,0,0,0,0,0
1570545869468.75,2,50,38,0,0,0,0,0
1570545869500,3,52,40,0,0,0,0,0
1570545869531.25,3,53,38,0,0,0,0,0
1570545869562.5,5,52,36,0,0,0,0,0
1570545869593.75,15,52,34,0,0,0,0,0
1570545869625,20,52,33,0,0,0,0,0
1570545869656.25,23,52,31,0,0,0,0,0
1570545869687.5,20,52,33,0,0,0,0,0
1570545869718.75,18,52,34,0,0,0,0,0
1570545869750,15,51,36,0,0,0,0,0
1570545869781.25,15,50,34,0,0,0,0,0
1570545869812.5,17,50,34,0,0,0,0,0
1570545869843.75,22,50,36,0,0,0,0,0
1570545869875,23,49,34,0,0,0,0,0
1570545869906.25,22,49,31,0,0,0,0,0
1570545869937.5,25,48,34,0,0,0,0,0
1570545869968.75,27,47,34,0,0,0,0,0
1570545870000,33,47,32,0,0,0,0,0
1570545870031.25,36,46,30,0,0,0,0,0
1570545870062.5,36,47,27,0,0,0,0,0
1570545870093.75,36,46,27,0,0,0,0,0
1570545870125,35,46,27,0,0,0,0,0
1570545870156.25,36,45,29,0,0,0,0,0
1570545870187.5,38,45,30,0,0,0,0,0
1570545870218.75,37,45,27,0,0,0,0,0
1570545870250,35,45,27,0,0,0,0,0
1570545870281.25,34,45,25,0,0,0,0,0
1570545870312.5,35,45,25,0,0,0,0,0
1570545870343.75,35,44,28,0,0,0,0,0
1570545870375,35,44,27,0,0,0,0,0
1570545870406.25,37,44,24,0,0,0,0,0
1570545870437.5,37,43,23,0,0,0,0,0
1570545870468.75,40,42,23,0,0,0,0,0
1570545870500,44,40,24,0,0,0,0,0
1570545870531.25,47,40,25,0,0,0,0,0
1570545870562.5,50,39,26,0,0,0,0,0
1570545870593.75,49,38,23,0,0,0,0,0
1570545870625,58,39,24,0,0,0,0,0
1570545870656.25,60,39,30,0,0,0,0,0
1570545870687.5,47,40,27,0,0,0,0,0
1570545870718.75,42,41,20,0,0,0,0,0
1570545870750,36,44,21,0,0,0,0,0
1570545870781.25,33,44,26,0,0,0,0,0
1570545870812.5,30,45,28,0,0,0,0,0
1570545870843.75,33,45,29,0,0,0,0,0
1570545870875,45,44,29,0,0,0,0,0
1570545870906.25,40,46,29,0,0,0,0,0
1570545870937.5,43,46,31,0,0,0,0,0
1570545870968.75,24,49,25,0,0,0,0,0
1570545871000,23,50,25,0,0,0,0,0
1570545871031.25,16,51,27,0,0,0,0,0
1570545871062.5,12,52,26,0,0,0,0,0
1570545871093.75,9,53,27,0,0,0,0,0
1570545871125,11,53,28,0,0,0,0,0
1570545871156.25,25,54,33,0,0,0,0,0
1570545871187.5,30,52,33,0,0,0,0,0
1570545871218.75,23,51,29,0,0,0,0,0
1570545871250,20,52,29,0,0,0,0,0
1570545871281.25,17,53,30,0,0,0,0,0
1570545871312.5,19,52,32,0,0,0,0,0
1570545871343.75,20,52,32,0,0,0,0,0
1570545871375,24,50,32,0,0,0,0,0
1570545871406.25,24,52,32,0,0,0,0,0
1570545871437.5,22,52,32,0,0,0,0,0
1570545871468.75,22,52,33,0,0,0,0,0
1570545871500,20,53,30,0,0,0,0,0
1570545871531.25,17,53,30,0,0,0,0,0
1570545871562.5,18,53,32,0,0,0,0,0
1570545871593.75,15,54,31,0,0,0,0,0
1570545871625,12,54,31,0,0,0,0,0
1570545871656.25,10,55,31,0,0,0,0,0
1570545871687.5,6,55,31,0,0,0,0,0
1570545871718.75,6,54,33,0,0,0,0,0
1570545871750,8,54,34,0,0,0,0,0
1570545871781.25,12,54,33,0,0,0,0,0
1570545871812.5,13,55,33,0,0,0,0,0
1570545871843.75,12,53,31,0,0,0,0,0
1570545871875,13,54,34,0,0,0,0,0
1570545871906.25,8,54,35,0,0,0,0,0
1570545871937.5,5,54,34,0,0,0,0,0
1570545871968.75,2,54,34,0,0,0,0,0
1570545872000,10,54,33,0,0,0,0,0
1570545872031.25,13,54,33,0,0,0,0,0
1570545872062.5,14,54,32,0,0,0,0,0
1570545872093.75,15,54,33,0,0,0,0,0
1570545872125,11,53,29,0,0,0,0,0
1570545872156.25,9,54,37,0,0,0,0,0
1570545872187.5,14,52,34,0,0,0,0,0
1570545872218.75,10,53,30,0,0,0,0,0
1570545872250,14,53,32,0,0,0,0,0
1570545872281.25,16,53,33,0,0,0,0,0
1570545872312.5,17,52,34,0,0,0,0,0
1570545872343.75,17,51,34,0,0,0,0,0
1570545872375,19,51,34,0,0,0,0,0
1570545872406.25,18,52,33,0,0,0,0,0
1570545872437.5,22,51,32,0,0,0,0,0
1570545872468.75,22,51,31,0,0,0,0,0
1570545872500,28,50,33,0,0,0,0,0
1570545872531.25,28,50,31,0,0,0,0,0
1570545872562.5,26,49,30,0,0,0,0,0
1570545872593.75,22,50,29,0,0,0,0,0
1570545872625,23,50,29,0,0,0,0,0
1570545872656.25,28,49,30,0,0,0,0,0
1570545872687.5,32,49,31,0,0,0,0,0
1570545872718.75,37,45,29,0,0,0,0,0
1570545872750,40,46,30,0,0,0,0,0
1570545872781.25,43,45,32,0,0,0,0,0
1570545872812.5,45,45,34,0,0,0,0,0
1570545872843.75,34,46,29,0,0,0,0,0
1570545872875,29,47,25,0,0,0,0,0
1570545872906.25,25,49,24,0,0,0,0,0
1570545872937.5,29,49,28,0,0,0,0,0
1570545872968.75,32,49,30,0,0,0,0,0
1570545873000,34,49,29,0,0,0,0,0
1570545873031.25,33,49,30,0,0,0,0,0
1570545873062.5,29,49,28,0,0,0,0,0
1570545873093.75,29,49,28,0,0,0,0,0
1570545873125,27,50,27,0,0,0,0,0
1570545873156.25,26,50,27,0,0,0,0,0
1570545873187.5,26,51,29,0,0,0,0,0
1570545873218.75,25,51,30,0,0,0,0,0
1570545873250,24,52,29,0,0,0,0,0
1570545873281.25,23,52,30,0,0,0,0,0
1570545873312.5,22,51,32,0,0,0,0,0
1570545873343.75,19,51,31,0,0,0,0,0
1570545873375,20,52,31,0,0,0,0,0
1570545873406.25,19,53,30,0,0,0,0,0
1570545873437.5,20,53,30,0,0,0,0,0
1570545873468.75,22,53,32,0,0,0,0,0
1570545873500,22,53,32,0,0,0,0,0
1570545873531.25,21,52,30,0,0,0,0,0
1570545873562.5,18,53,31,0,0,0,0,0
1570545873593.75,19,53,31,0,0,0,0,0
1570545873625,17,53,30,0,0,0,0,0
1570545873656.25,15,54,31,0,0,0,0,0
1570545873687.5,10,55,34,0,0,0,0,0
1570545873718.75,6,55,32,0,0,0,0,0
1570545873750,6,54,33,0,0,0,0,0
1570545873781.25,6,54,34,0,0,0,0,0
1570545873812.5,5,53,33,0,0,0,0,0
1570545873843.75,3,53,33,0,0,0,0,0
1570545873875,2,54,35,0,0,0,0,0
1570545873906.25,2,54,34,0,0,0,0,0
1570545873937.5,2,54,35,0,0,0,0,0
1570545873968.75,5,54,33,0,0,0,0,0
1570545874000,9,54,33,0,0,0,0,0
1570545874031.25,13,53,33,0,0,0,0,0
1570545874062.5,20,54,32,0,0,0,0,0
1570545874093.75,17,53,26,0,0,0,0,0
1570545874125,18,54,32,0,0,0,0,0
1570545874156.25,25,52,35,0,0,0,0,0
1570545874187.5,22,52,33,0,0,0,0,0
1570545874218.75,21,52,33,0,0,0,0,0
1570545874250,21,52,33,0,0,0,0,0
1570545874281.25,18,52,32,0,0,0,0,0
1570545874312.5,19,52,31,0,0,0,0,0
1570545874343.75,22,52,30,0,0,0,0,0
1570545874375,26,52,30,0,0,0,0,0
1570545874406.25,31,52,28,0,0,0,0,0
1570545874437.5,32,51,27,0,0,0,0,0
1570545874468.75,27,51,29,0,0,0,0,0
1570545874500,24,52,29,0,0,0,0,0
1570545874531.25,23,52,27,0,0,0,0,0
1570545874562.5,22,51,28,0,0,0,0,0
1570545874593.75,23,51,29,0,0,0,0,0
1570545874625,24,51,29,0,0,0,0,0
1570545874656.25,26,51,29,0,0,0,0,0
1570545874687.5,29,51,27,0,0,0,0,0
1570545874718.75,30,51,26,0,0,0,0,0
1570545874750,30,51,27,0,0,0,0,0
1570545874781.25,29,51,28,0,0,0,0,0
1570545874812.5,28,50,28,0,0,0,0,0
1570545874843.75,27,51,28,0,0,0,0,0
1570545874875,26,50,27,0,0,0,0,0
1570545874906.25,24,51,28,0,0,0,0,0
1570545874937.5,29,50,30,0,0,0,0,0
1570545874968.75,26,50,26,0,0,0,0,0
1570545875000,26,50,28,0,0,0,0,0
1570545875031.25,26,50,28,0,0,0,0,0
1570545875062.5,27,50,28,0,0,0,0,0
1570545875093.75,28,50,29,0,0,0,0,0
1570545875125,28,50,28,0,0,0,0,0
1570545875156.25,27,50,27,0,0,0,0,0
1570545875187.5,29,49,27,0,0,0,0,0
1570545875218.75,30,48,29,0,0,0,0,0
1570545875250,32,48,29,0,0,0,0,0
1570545875281.25,34,47,27,0,0,0,0,0
1570545875312.5,33,47,27,0,0,0,0,0
1570545875343.75,34,47,28,0,0,0,0,0
1570545875375,31,47,26,0,0,0,0,0
1570545875406.25,32,47,27,0,0,0,0,0
1570545875437.5,35,47,26,0,0,0,0,0
1570545875468.75,35,47,26,0,0,0,0,0
1570545875500,37,46,25,0,0,0,0,0
1570545875531.25,38,45,25,0,0,0,0,0
1570545875562.5,40,44,24,0,0,0,0,0
1570545875593.75,40,44,23,0,0,0,0,0
1570545875625,39,44,23,0,0,0,0,0
1570545875656.25,37,44,23,0,0,0,0,0
1570545875687.5,38,44,23,0,0,0,0,0
1570545875718.75,40,44,23,0,0,0,0,0
1570545875750,39,44,22,0,0,0,0,0
1570545875781.25,41,43,22,0,0,0,0,0
1570545875812.5,41,43,22,0,0,0,0,0
1570545875843.75,44,42,22,0,0,0,0,0
1570545875875,44,42,22,0,0,0,0,0
1570545875906.25,43,42,22,0,0,0,0,0
1570545875937.5,42,42,21,0,0,0,0,0
1570545875968.75,42,42,22,0,0,0,0,0
1570545876000,43,42,22,0,0,0,0,0
1570545876031.25,44,42,20,0,0,0,0,0
1570545876062.5,45,41,20,0,0,0,0,0
1570545876093.75,46,41,20,0,0,0,0,0
1570545876125,45,41,19,0,0,0,0,0
1570545876156.25,46,41,19,0,0,0,0,0
1570545876187.5,45,41,20,0,0,0,0,0
1570545876218.75,46,42,22,0,0,0,0,0
1570545876250,44,42,21,0,0,0,0,0
1570545876281.25,44,42,22,0,0,0,0,0
1570545876312.5,45,42,24,0,0,0,0,0
1570545876343.75,46,42,24,0,0,0,0,0
1570545876375,42,42,23,0,0,0,0,0
1570545876406.25,40,43,23,0,0,0,0,0
1570545876437.5,40,45,27,0,0,0,0,0
1570545876468.75,35,45,27,0,0,0,0,0
1570545876500,27,46,27,0,0,0,0,0
1570545876531.25,26,47,28,0,0,0,0,0
1570545876562.5,28,47,28,0,0,0,0,0
1570545876593.75,34,48,30,0,0,0,0,0
1570545876625,34,47,29,0,0,0,0,0
1570545876656.25,30,48,29,0,0,0,0,0
1570545876687.5,28,48,29,0,0,0,0,0
1570545876718.75,27,48,29,0,0,0,0,0
1570545876750,26,48,29,0,0,0,0,0
1570545876781.25,25,49,29,0,0,0,0,0
1570545876812.5,25,49,30,0,0,0,0,0
1570545876843.75,28,48,31,0,0,0,0,0
1570545876875,30,48,32,0,0,0,0,0
1570545876906.25,34,47,34,0,0,0,0,0
1570545876937.5,31,47,33,0,0,0,0,0
1570545876968.75,22,47,31,0,0,0,0,0
1570545877000,19,49,30,0,0,0,0,0
1570545877031.25,22,49,30,0,0,0,0,0
1570545877062.5,27,49,33,0,0,0,0,0
1570545877093.75,27,49,35,0,0,0,0,0
1570545877125,26,48,36,0,0,0,0,0
1570545877156.25,25,48,37,0,0,0,0,0
1570545877187.5,25,49,36,0,0,0,0,0
1570545877218.75,23,50,30,0,0,0,0,0
1570545877250,23,50,22,0,0,0,0,0
1570545877281.25,27,50,23,0,0,0,0,0
1570545877312.5,31,50,24,0,0,0,0,0
1570545877343.75,34,50,24,0,0,0,0,0
1570545877375,34,50,23,0,0,0,0,0
1570545877406.25,34,50,24,0,0,0,0,0
1570545877437.5,34,49,24,0,0,0,0,0
1570545877468.75,32,49,25,0,0,0,0,0
1570545877500,32,50,26,0,0,0,0,0
1570545877531.25,31,48,29,0,0,0,0,0
1570545877562.5,30,48,30,0,0,0,0,0
1570545877593.75,28,48,33,0,0,0,0,0
1570545877625,28,48,33,0,0,0,0,0
1570545877656.25,27,48,32,0,0,0,0,0
1570545877687.5,26,48,31,0,0,0,0,0
1570545877718.75,28,48,30,0,0,0,0,0
1570545877750,31,47,32,0,0,0,0,0
1570545877781.25,32,48,32,0,0,0,0,0
1570545877812.5,32,49,32,0,0,0,0,0
1570545877843.75,27,48,32,0,0,0,0,0
1570545877875,21,49,30,0,0,0,0,0
1570545877906.25,20,49,31,0,0,0,0,0
1570545877937.5,25,47,33,0,0,0,0,0
1570545877968.75,29,47,34,0,0,0,0,0
1570545878000,32,47,34,0,0,0,0,0
1570545878031.25,33,47,35,0,0,0,0,0
1570545878062.5,30,47,33,0,0,0,0,0
1570545878093.75,29,48,31,0,0,0,0,0
1570545878125,25,49,32,0,0,0,0,0
1570545878156.25,23,49,29,0,0,0,0,0
1570545878187.5,26,49,31,0,0,0,0,0
1570545878218.75,34,47,34,0,0,0,0,0
1570545878250,33,47,34,0,0,0,0,0
1570545878281.25,28,48,34,0,0,0,0,0
1570545878312.5,24,48,32,0,0,0,0,0
1570545878343.75,25,47,34,0,0,0,0,0
1570545878375,21,48,37,0,0,0,0,0
1570545878406.25,14,47,35,0,0,0,0,0
1570545878437.5,17,48,32,0,0,0,0,0
1570545878468.75,36,48,33,0,0,0,0,0
1570545878500,46,46,36,0,0,0,0,0
1570545878531.25,36,46,35,0,0,0,0,0
1570545878562.5,23,48,33,0,0,0,0,0
1570545878593.75,20,48,32,0,0,0,0,0
1570545878625,18,49,32,0,0,0,0,0
1570545878656.25,20,49,33,0,0,0,0,0
1570545878687.5,24,49,34,0,0,0,0,0
1570545878718.75,27,48,35,0,0,0,0,0
1570545878750,28,49,33,0,0,0,0,0
1570545878781.25,28,49,32,0,0,0,0,0
1570545878812.5,25,49,31,0,0,0,0,0
1570545878843.75,25,49,31,0,0,0,0,0
1570545878875,25,50,32,0,0,0,0,0
1570545878906.25,25,49,31,0,0,0,0,0
1570545878937.5,27,49,31,0,0,0,0,0
1570545878968.75,26,49,29,0,0,0,0,0
1570545879000,27,50,30,0,0,0,0,0
1570545879031.25,27,49,30,0,0,0,0,0
1570545879062.5,27,49,29,0,0,0,0,0
1570545879093.75,28,49,31,0,0,0,0,0
1570545879125,28,50,32,0,0,0,0,0
1570545879156.25,28,50,33,0,0,0,0,0
1570545879187.5,27,49,32,0,0,0,0,0
1570545879218.75,29,49,32,0,0,0,0,0
1570545879250,29,49,32,0,0,0,0,0
1570545879281.25,24,50,30,0,0,0,0,0
1570545879312.5,23,50,29,0,0,0,0,0
1570545879343.75,24,51,27,0,0,0,0,0
1570545879375,25,51,28,0,0,0,0,0
1570545879406.25,25,51,28,0,0,0,0,0
1570545879437.5,26,51,29,0,0,0,0,0
1570545879468.75,27,50,30,0,0,0,0,0
1570545879500,25,50,31,0,0,0,0,0
1570545879531.25,25,50,31,0,0,0,0,0
1570545879562.5,24,50,32,0,0,0,0,0
1570545879593.75,23,50,32,0,0,0,0,0
1570545879625,21,51,32,0,0,0,0,0
1570545879656.25,21,50,32,0,0,0,0,0
1570545879687.5,22,51,31,0,0,0,0,0
1570545879718.75,24,51,31,0,0,0,0,0
1570545879750,27,50,33,0,0,0,0,0
1570545879781.25,22,50,33,0,0,0,0,0
1570545879812.5,18,50,33,0,0,0,0,0
1570545879843.75,16,51,36,0,0,0,0,0
1570545879875,15,51,36,0,0,0,0,0
1570545879906.25,16,51,35,0,0,0,0,0
1570545879937.5,16,51,34,0,0,0,0,0
1570545879968.75,16,50,35,0,0,0,0,0
1570545880000,16,50,37,0,0,0,0,0
1570545880031.25,12,51,38,0,0,0,0,0
1570545880062.5,10,51,36,0,0,0,0,0
1570545880093.75,14,50,33,0,0,0,0,0
1570545880125,16,50,32,0,0,0,0,0
1570545880156.25,17,50,38,0,0,0,0,0
1570545880187.5,16,50,44,0,0,0,0,0
1570545880218.75,15,49,39,0,0,0,0,0
1570545880250,16,49,31,0,0,0,0,0
1570545880281.25,20,50,31,0,0,0,0,0
1570545880312.5,27,49,32,0,0,0,0,0
1570545880343.75,29,49,32,0,0,0,0,0
1570545880375,29,50,32,0,0,0,0,0
1570545880406.25,27,50,30,0,0,0,0,0
1570545880437.5,28,49,31,0,0,0,0,0
1570545880468.75,27,49,31,0,0,0,0,0
1570545880500,28,47,34,0,0,0,0,0
1570545880531.25,27,47,34,0,0,0,0,0
1570545880562.5,27,48,32,0,0,0,0,0
1570545880593.75,25,48,30,0,0,0,0,0
1570545880625,26,47,31,0,0,0,0,0
1570545880656.25,22,45,29,0,0,0,0,0
1570545880687.5,28,45,36,0,0,0,0,0
1570545880718.75,33,44,35,0,0,0,0,0
1570545880750,31,44,34,0,0,0,0,0
1570545880781.25,30,44,30,0,0,0,0,0
1570545880812.5,32,44,33,0,0,0,0,0
1570545880843.75,37,42,34,0,0,0,0,0
1570545880875,39,42,33,0,0,0,0,0
1570545880906.25,45,39,34,0,0,0,0,0
1570545880937.5,51,40,38,0,0,0,0,0
1570545880968.75,43,42,38,0,0,0,0,0
1570545881000,33,44,31,0,0,0,0,0
1570545881031.25,32,44,30,0,0,0,0,0
1570545881062.5,38,42,37,0,0,0,0,0
1570545881093.75,38,40,44,0,0,0,0,0
1570545881125,26,46,31,0,0,0,0,0
1570545881156.25,26,46,31,0,0,0,0,0
1570545881187.5,20,45,38,0,0,0,0,0
1570545881218.75,20,49,37,0,0,0,0,0
1570545881250,15,51,35,0,0,0,0,0
1570545881281.25,10,50,34,0,0,0,0,0
1570545881312.5,15,49,36,0,0,0,0,0
1570545881343.75,21,49,40,0,0,0,0,0
1570545881375,23,48,39,0,0,0,0,0
1570545881406.25,23,49,35,0,0,0,0,0
1570545881437.5,19,49,35,0,0,0,0,0
1570545881468.75,5,48,38,0,0,0,0,0
1570545881500,7,51,39,0,0,0,0,0
1570545881531.25,16,51,39,0,0,0,0,0
1570545881562.5,18,49,39,0,0,0,0,0
1570545881593.75,6,50,37,0,0,0,0,0
1570545881625,4,51,37,0,0,0,0,0
1570545881656.25,7,51,39,0,0,0,0,0
1570545881687.5,8,51,39,0,0,0,0,0
1570545881718.75,7,50,38,0,0,0,0,0
1570545881750,4,51,39,0,0,0,0,0
1570545881781.25,4,52,38,0,0,0,0,0
1570545881812.5,6,51,37,0,0,0,0,0
1570545881843.75,6,51,38,0,0,0,0,0
1570545881875,8,52,40,0,0,0,0,0
1570545881906.25,9,51,39,0,0,0,0,0
1570545881937.5,12,53,40,0,0,0,0,0
1570545881968.75,13,51,39,0,0,0,0,0
1570545882000,8,51,36,0,0,0,0,0
1570545882031.25,2,52,34,0,0,0,0,0
1570545882062.5,-2,53,34,0,0,0,0,0
1570545882093.75,-3,54,37,0,0,0,0,0
1570545882125,-7,51,33,0,0,0,0,0
1570545882156.25,-8,54,34,0,0,0,0,0
1570545882187.5,-14,53,35,0,0,0,0,0
1570545882218.75,-23,53,36,0,0,0,0,0
1570545882250,-23,53,35,0,0,0,0,0
1570545882281.25,-9,54,38,0,0,0,0,0
1570545882312.5,-2,54,35,0,0,0,0,0
1570545882343.75,0,53,32,0,0,0,0,0
1570545882375,-5,52,36,0,0,0,0,0
1570545882406.25,-9,52,38,0,0,0,0,0
1570545882437.5,-13,53,35,0,0,0,0,0
1570545882468.75,-4,54,36,0,0,0,0,0
1570545882500,0,54,37,0,0,0,0,0
1570545882531.25,-3,55,24,0,0,0,0,0
1570545882562.5,-12,56,19,0,0,0,0,0
1570545882593.75,9,48,40,0,0,0,0,0
1570545882625,14,49,27,0,0,0,0,0
1570545882656.25,20,47,28,0,0,0,0,0
1570545882687.5,32,42,29,0,0,0,0,0
1570545882718.75,47,42,32,0,0,0,0,0
1570545882750,50,38,36,0,0,0,0,0
1570545882781.25,55,39,39,0,0,0,0,0
1570545882812.5,48,39,31,0,0,0,0,0
1570545882843.75,39,41,28,0,0,0,0,0
1570545882875,30,42,24,0,0,0,0,0
1570545882906.25,35,42,23,0,0,0,0,0
1570545882937.5,52,36,28,0,0,0,0,0
1570545882968.75,59,34,30,0,0,0,0,0
1570545883000,64,35,32,0,0,0,0,0
1570545883031.25,44,39,24,0,0,0,0,0
1570545883062.5,40,41,24,0,0,0,0,0
1570545883093.75,42,41,27,0,0,0,0,0
1570545883125,41,41,29,0,0,0,0,0
1570545883156.25,42,42,28,0,0,0,0,0
1570545883187.5,38,41,26,0,0,0,0,0
1570545883218.75,31,43,26,0,0,0,0,0
1570545883250,31,44,26,0,0,0,0,0
1570545883281.25,33,45,28,0,0,0,0,0
1570545883312.5,37,45,30,0,0,0,0,0
1570545883343.75,34,44,36,0,0,0,0,0
1570545883375,33,44,31,0,0,0,0,0
1570545883406.25,31,45,32,0,0,0,0,0
1570545883437.5,31,46,34,0,0,0,0,0
1570545883468.75,30,47,33,0,0,0,0,0
1570545883500,29,47,33,0,0,0,0,0
1570545883531.25,28,47,33,0,0,0,0,0
1570545883562.5,24,48,32,0,0,0,0,0
1570545883593.75,25,49,32,0,0,0,0,0
1570545883625,28,49,34,0,0,0,0,0
1570545883656.25,22,49,32,0,0,0,0,0
1570545883687.5,18,50,32,0,0,0,0,0
1570545883718.75,19,50,33,0,0,0,0,0
1570545883750,22,49,34,0,0,0,0,0
1570545883781.25,22,50,34,0,0,0,0,0
1570545883812.5,20,50,34,0,0,0,0,0
1570545883843.75,20,50,35,0,0,0,0,0
1570545883875,22,51,36,0,0,0,0,0
1570545883906.25,23,51,36,0,0,0,0,0
1570545883937.5,20,50,34,0,0,0,0,0
1570545883968.75,15,52,35,0,0,0,0,0
1570545884000,14,51,35,0,0,0,0,0
1570545884031.25,13,47,35,0,0,0,0,0
1570545884062.5,9,52,35,0,0,0,0,0
1570545884093.75,0,56,29,0,0,0,0,0
1570545884125,-5,58,26,0,0,0,0,0
1570545884156.25,3,58,29,0,0,0,0,0
1570545884187.5,0,55,29,0,0,0,0,0
1570545884218.75,0,54,30,0,0,0,0,0
1570545884250,7,52,31,0,0,0,0,0
1570545884281.25,16,53,28,0,0,0,0,0
1570545884312.5,30,52,25,0,0,0,0,0
1570545884343.75,34,53,28,0,0,0,0,0
1570545884375,34,49,25,0,0,0,0,0
1570545884406.25,31,49,23,0,0,0,0,0
1570545884437.5,24,51,22,0,0,0,0,0
1570545884468.75,29,50,24,0,0,0,0,0
1570545884500,34,48,27,0,0,0,0,0
1570545884531.25,39,48,24,0,0,0,0,0
1570545884562.5,21,45,18,0,0,0,0,0
1570545884593.75,13,46,19,0,0,0,0,0
1570545884625,40,43,17,0,0,0,0,0
1570545884656.25,71,34,26,0,0,0,0,0
1570545884687.5,74,31,29,0,0,0,0,0
1570545884718.75,67,32,32,0,0,0,0,0
1570545884750,48,35,23,0,0,0,0,0
1570545884781.25,35,40,20,0,0,0,0,0
1570545884812.5,40,41,24,0,0,0,0,0
1570545884843.75,50,39,33,0,0,0,0,0
1570545884875,47,39,31,0,0,0,0,0
1570545884906.25,37,41,30,0,0,0,0,0
1570545884937.5,35,43,30,0,0,0,0,0
1570545884968.75,36,43,28,0,0,0,0,0
1570545885000,34,43,29,0,0,0,0,0
1570545885031.25,34,44,30,0,0,0,0,0
1570545885062.5,38,43,32,0,0,0,0,0
1570545885093.75,39,43,31,0,0,0,0,0
1570545885125,32,43,23,0,0,0,0,0
1570545885156.25,29,44,37,0,0,0,0,0
1570545885187.5,30,46,34,0,0,0,0,0
1570545885218.75,28,46,33,0,0,0,0,0
1570545885250,28,47,33,0,0,0,0,0
1570545885281.25,30,45,33,0,0,0,0,0
1570545885312.5,29,46,33,0,0,0,0,0
1570545885343.75,30,46,35,0,0,0,0,0
1570545885375,29,46,36,0,0,0,0,0
1570545885406.25,35,45,37,0,0,0,0,0
1570545885437.5,33,47,35,0,0,0,0,0
1570545885468.75,21,49,31,0,0,0,0,0
1570545885500,19,51,31,0,0,0,0,0
1570545885531.25,15,51,31,0,0,0,0,0
1570545885562.5,14,52,32,0,0,0,0,0
1570545885593.75,19,50,33,0,0,0,0,0
1570545885625,15,50,33,0,0,0,0,0
1570545885656.25,12,52,34,0,0,0,0,0
1570545885687.5,12,51,36,0,0,0,0,0
1570545885718.75,9,54,34,0,0,0,0,0
1570545885750,8,54,33,0,0,0,0,0
1570545885781.25,8,52,34,0,0,0,0,0
1570545885812.5,11,52,39,0,0,0,0,0
1570545885843.75,12,51,39,0,0,0,0,0
1570545885875,16,51,38,0,0,0,0,0
1570545885906.25,16,51,37,0,0,0,0,0
1570545885937.5,12,52,35,0,0,0,0,0
1570545885968.75,12,51,30,0,0,0,0,0
1570545886000,10,52,23,0,0,0,0,0
1570545886031.25,25,50,32,0,0,0,0,0
1570545886062.5,-18,56,31,0,0,0,0,0
1570545886093.75,-31,58,36,0,0,0,0,0
1570545886125,-34,53,45,0,0,0,0,0
1570545886156.25,-21,52,43,0,0,0,0,0
1570545886187.5,-15,52,30,0,0,0,0,0
1570545886218.75,-4,52,37,0,0,0,0,0
1570545886250,-3,52,38,0,0,0,0,0
1570545886281.25,-9,54,34,0,0,0,0,0
1570545886312.5,-9,54,34,0,0,0,0,0
1570545886343.75,4,53,36,0,0,0,0,0
1570545886375,6,54,36,0,0,0,0,0
1570545886406.25,-5,56,29,0,0,0,0,0
1570545886437.5,-5,54,32,0,0,0,0,0
1570545886468.75,-2,54,39,0,0,0,0,0
1570545886500,1,52,38,0,0,0,0,0
1570545886531.25,2,53,40,0,0,0,0,0
1570545886562.5,7,54,39,0,0,0,0,0
1570545886593.75,1,55,31,0,0,0,0,0
1570545886625,4,53,36,0,0,0,0,0
1570545886656.25,7,53,39,0,0,0,0,0
1570545886687.5,-13,56,30,0,0,0,0,0
1570545886718.75,-12,51,39,0,0,0,0,0
1570545886750,1,49,39,0,0,0,0,0
1570545886781.25,5,51,37,0,0,0,0,0
1570545886812.5,-1,53,32,0,0,0,0,0
1570545886843.75,-4,51,31,0,0,0,0,0
1570545886875,-3,50,30,0,0,0,0,0
1570545886906.25,-5,50,26,0,0,0,0,0
1570545886937.5,15,46,28,0,0,0,0,0
1570545886968.75,41,42,35,0,0,0,0,0
1570545887000,30,38,31,0,0,0,0,0
1570545887031.25,42,39,31,0,0,0,0,0
1570545887062.5,51,37,32,0,0,0,0,0
1570545887093.75,62,36,35,0,0,0,0,0
1570545887125,57,35,33,0,0,0,0,0
1570545887156.25,42,37,28,0,0,0,0,0
1570545887187.5,49,36,31,0,0,0,0,0
1570545887218.75,50,36,34,0,0,0,0,0
1570545887250,45,37,29,0,0,0,0,0
1570545887281.25,45,38,30,0,0,0,0,0
1570545887312.5,45,39,32,0,0,0,0,0
1570545887343.75,43,38,35,0,0,0,0,0
1570545887375,41,39,34,0,0,0,0,0
1570545887406.25,34,41,29,0,0,0,0,0
1570545887437.5,29,43,30,0,0,0,0,0
1570545887468.75,29,43,31,0,0,0,0,0
1570545887500,32,44,34,0,0,0,0,0
1570545887531.25,34,44,35,0,0,0,0,0
1570545887562.5,34,43,35,0,0,0,0,0
1570545887593.75,30,44,35,0,0,0,0,0
1570545887625,33,45,38,0,0,0,0,0
1570545887656.25,29,44,36,0,0,0,0,0
1570545887687.5,31,45,36,0,0,0,0,0
1570545887718.75,34,46,37,0,0,0,0,0
1570545887750,23,48,33,0,0,0,0,0
1570545887781.25,21,49,33,0,0,0,0,0
1570545887812.5,11,50,35,0,0,0,0,0
1570545887843.75,13,48,35,0,0,0,0,0
1570545887875,15,49,36,0,0,0,0,0
1570545887906.25,17,50,38,0,0,0,0,0
1570545887937.5,17,49,37,0,0,0,0,0
1570545887968.75,16,50,37,0,0,0,0,0
1570545888000,17,50,38,0,0,0,0,0
1570545888031.25,20,49,38,0,0,0,0,0
1570545888062.5,20,50,39,0,0,0,0,0
1570545888093.75,13,50,37,0,0,0,0,0
1570545888125,14,50,38,0,0,0,0,0
1570545888156.25,17,51,37,0,0,0,0,0
1570545888187.5,14,52,36,0,0,0,0,0
1570545888218.75,14,51,36,0,0,0,0,0
1570545888250,10,53,35,0,0,0,0,0
1570545888281.25,9,53,37,0,0,0,0,0
1570545888312.5,4,51,37,0,0,0,0,0
1570545888343.75,2,52,38,0,0,0,0,0
1570545888375,-4,49,39,0,0,0,0,0
1570545888406.25,-13,49,36,0,0,0,0,0
1570545888437.5,-16,56,32,0,0,0,0,0
1570545888468.75,-6,56,35,0,0,0,0,0
1570545888500,-8,51,35,0,0,0,0,0
1570545888531.25,-12,54,38,0,0,0,0,0
1570545888562.5,-16,53,38,0,0,0,0,0
1570545888593.75,-15,52,36,0,0,0,0,0
1570545888625,-17,52,33,0,0,0,0,0
1570545888656.25,-20,50,32,0,0,0,0,0
1570545888687.5,-22,51,34,0,0,0,0,0
1570545888718.75,-18,52,33,0,0,0,0,0
1570545888750,-17,52,35,0,0,0,0,0
1570545888781.25,-13,51,39,0,0,0,0,0
1570545888812.5,-9,51,37,0,0,0,0,0
1570545888843.75,-4,54,33,0,0,0,0,0
1570545888875,0,55,34,0,0,0,0,0
1570545888906.25,-2,55,30,0,0,0,0,0
1570545888937.5,-4,55,30,0,0,0,0,0
1570545888968.75,-1,53,33,0,0,0,0,0
1570545889000,2,53,34,0,0,0,0,0
1570545889031.25,7,52,34,0,0,0,0,0
1570545889062.5,6,49,33,0,0,0,0,0
1570545889093.75,4,49,29,0,0,0,0,0
1570545889125,36,46,45,0,0,0,0,0
1570545889156.25,28,48,44,0,0,0,0,0
1570545889187.5,26,45,43,0,0,0,0,0
1570545889218.75,26,47,35,0,0,0,0,0
1570545889250,13,48,28,0,0,0,0,0
1570545889281.25,17,45,29,0,0,0,0,0
1570545889312.5,18,46,25,0,0,0,0,0
1570545889343.75,31,43,30,0,0,0,0,0
1570545889375,61,39,39,0,0,0,0,0
1570545889406.25,60,38,39,0,0,0,0,0
1570545889437.5,51,36,31,0,0,0,0,0
1570545889468.75,47,36,30,0,0,0,0,0
1570545889500,44,39,30,0,0,0,0,0
1570545889531.25,41,40,29,0,0,0,0,0
1570545889562.5,43,40,29,0,0,0,0,0
1570545889593.75,46,39,31,0,0,0,0,0
1570545889625,49,38,33,0,0,0,0,0
1570545889656.25,48,41,35,0,0,0,0,0
1570545889687.5,39,42,32,0,0,0,0,0
1570545889718.75,24,45,26,0,0,0,0,0
1570545889750,25,45,28,0,0,0,0,0
1570545889781.25,27,45,29,0,0,0,0,0
1570545889812.5,29,44,31,0,0,0,0,0
1570545889843.75,36,44,38,0,0,0,0,0
1570545889875,32,43,34,0,0,0,0,0
1570545889906.25,33,45,33,0,0,0,0,0
1570545889937.5,40,45,37,0,0,0,0,0
1570545889968.75,34,45,36,0,0,0,0,0
1570545890000,24,48,32,0,0,0,0,0
1570545890031.25,25,49,33,0,0,0,0,0
1570545890062.5,15,49,31,0,0,0,0,0
1570545890093.75,13,50,31,0,0,0,0,0
1570545890125,14,51,32,0,0,0,0,0
1570545890156.25,12,50,32,0,0,0,0,0
1570545890187.5,11,51,35,0,0,0,0,0
1570545890218.75,14,51,35,0,0,0,0,0
1570545890250,20,52,37,0,0,0,0,0
1570545890281.25,17,50,36,0,0,0,0,0
1570545890312.5,16,51,36,0,0,0,0,0
1570545890343.75,17,51,37,0,0,0,0,0
1570545890375,18,50,37,0,0,0,0,0
1570545890406.25,16,52,37,0,0,0,0,0
1570545890437.5,14,51,35,0,0,0,0,0
1570545890468.75,12,54,38,0,0,0,0,0
1570545890500,13,51,38,0,0,0,0,0
1570545890531.25,7,52,32,0,0,0,0,0
1570545890562.5,4,55,31,0,0,0,0,0
1570545890593.75,-5,53,37,0,0,0,0,0
1570545890625,-22,48,39,0,0,0,0,0
1570545890656.25,-23,49,41,0,0,0,0,0
1570545890687.5,-6,51,39,0,0,0,0,0
1570545890718.75,0,54,38,0,0,0,0,0
1570545890750,-5,56,28,0,0,0,0,0
1570545890781.25,-5,56,29,0,0,0,0,0
1570545890812.5,10,53,37,0,0,0,0,0
1570545890843.75,13,53,38,0,0,0,0,0
1570545890875,14,53,31,0,0,0,0,0
1570545890906.25,12,54,29,0,0,0,0,0
1570545890937.5,11,52,29,0,0,0,0,0
1570545890968.75,10,51,30,0,0,0,0,0
1570545891000,26,54,34,0,0,0,0,0
1570545891031.25,31,54,24,0,0,0,0,0
1570545891062.5,22,54,20,0,0,0,0,0
1570545891093.75,32,52,25,0,0,0,0,0
1570545891125,34,53,25,0,0,0,0,0
1570545891156.25,32,53,20,0,0,0,0,0
1570545891187.5,34,51,28,0,0,0,0,0
1570545891218.75,28,52,25,0,0,0,0,0
1570545891250,29,51,24,0,0,0,0,0
1570545891281.25,25,51,24,0,0,0,0,0
1570545891312.5,29,50,25,0,0,0,0,0
1570545891343.75,24,52,18,0,0,0,0,0
1570545891375,31,50,24,0,0,0,0,0
1570545891406.25,29,49,22,0,0,0,0,0
1570545891437.5,34,47,25,0,0,0,0,0
1570545891468.75,37,44,31,0,0,0,0,0
1570545891500,41,46,30,0,0,0,0,0
1570545891531.25,34,47,26,0,0,0,0,0
1570545891562.5,27,48,23,0,0,0,0,0
1570545891593.75,30,48,22,0,0,0,0,0
1570545891625,36,47,22,0,0,0,0,0
1570545891656.25,38,48,23,0,0,0,0,0
1570545891687.5,39,46,24,0,0,0,0,0
1570545891718.75,36,43,27,0,0,0,0,0
1570545891750,37,43,31,0,0,0,0,0
1570545891781.25,46,41,30,0,0,0,0,0
1570545891812.5,47,41,31,0,0,0,0,0
1570545891843.75,45,41,29,0,0,0,0,0
1570545891875,35,44,23,0,0,0,0,0
1570545891906.25,54,40,35,0,0,0,0,0
1570545891937.5,55,42,33,0,0,0,0,0
1570545891968.75,39,44,27,0,0,0,0,0
1570545892000,37,45,28,0,0,0,0,0
1570545892031.25,33,46,29,0,0,0,0,0
1570545892062.5,29,47,29,0,0,0,0,0
1570545892093.75,31,47,28,0,0,0,0,0
1570545892125,33,47,29,0,0,0,0,0
1570545892156.25,30,47,33,0,0,0,0,0
1570545892187.5,25,48,32,0,0,0,0,0
1570545892218.75,21,49,32,0,0,0,0,0
1570545892250,18,50,31,0,0,0,0,0
1570545892281.25,19,51,33,0,0,0,0,0
1570545892312.5,15,51,33,0,0,0,0,0
1570545892343.75,14,51,34,0,0,0,0,0
1570545892375,6,52,33,0,0,0,0,0
1570545892406.25,9,52,34,0,0,0,0,0
1570545892437.5,9,53,35,0,0,0,0,0
1570545892468.75,8,53,35,0,0,0,0,0
1570545892500,6,54,35,0,0,0,0,0
1570545892531.25,5,53,35,0,0,0,0,0
1570545892562.5,-1,53,35,0,0,0,0,0
1570545892593.75,-3,54,34,0,0,0,0,0
1570545892625,4,54,35,0,0,0,0,0
1570545892656.25,-2,52,33,0,0,0,0,0
1570545892687.5,-8,51,36,0,0,0,0,0
1570545892718.75,-15,50,38,0,0,0,0,0
1570545892750,-17,52,37,0,0,0,0,0
1570545892781.25,-10,52,36,0,0,0,0,0
1570545892812.5,-10,52,36,0,0,0,0,0
1570545892843.75,-14,52,36,0,0,0,0,0
1570545892875,-14,53,35,0,0,0,0,0
1570545892906.25,-14,52,36,0,0,0,0,0
1570545892937.5,-14,52,35,0,0,0,0,0
1570545892968.75,-14,51,34,0,0,0,0,0
1570545893000,-14,54,32,0,0,0,0,0
1570545893031.25,-13,53,33,0,0,0,0,0
1570545893062.5,-12,53,35,0,0,0,0,0
1570545893093.75,-15,53,34,0,0,0,0,0
1570545893125,-21,52,36,0,0,0,0,0
1570545893156.25,-23,52,35,0,0,0,0,0
1570545893187.5,-18,51,34,0,0,0,0,0
1570545893218.75,-14,51,35,0,0,0,0,0
1570545893250,-11,52,35,0,0,0,0,0
1570545893281.25,-13,51,36,0,0,0,0,0
1570545893312.5,-22,52,32,0,0,0,0,0
1570545893343.75,-26,52,32,0,0,0,0,0
1570545893375,-25,52,34,0,0,0,0,0
1570545893406.25,-23,50,33,0,0,0,0,0
1570545893437.5,-21,50,33,0,0,0,0,0
1570545893468.75,-24,50,34,0,0,0,0,0
1570545893500,-22,51,35,0,0,0,0,0
1570545893531.25,-17,51,33,0,0,0,0,0
1570545893562.5,-18,50,31,0,0,0,0,0
1570545893593.75,-20,51,33,0,0,0,0,0
1570545893625,-21,51,33,0,0,0,0,0
1570545893656.25,-27,49,36,0,0,0,0,0
1570545893687.5,-30,49,38,0,0,0,0,0
1570545893718.75,-30,49,39,0,0,0,0,0
1570545893750,-27,50,39,0,0,0,0,0
1570545893781.25,-28,49,34,0,0,0,0,0
1570545893812.5,-25,49,35,0,0,0,0,0
1570545893843.75,-18,49,33,0,0,0,0,0
1570545893875,-21,53,28,0,0,0,0,0
1570545893906.25,-23,54,25,0,0,0,0,0
1570545893937.5,-22,55,24,0,0,0,0,0
1570545893968.75,-14,54,26,0,0,0,0,0
1570545894000,-4,55,30,0,0,0,0,0
1570545894031.25,-3,54,32,0,0,0,0,0
1570545894062.5,-13,55,30,0,0,0,0,0
1570545894093.75,-7,55,29,0,0,0,0,0
1570545894125,6,56,34,0,0,0,0,0
1570545894156.25,3,57,32,0,0,0,0,0
1570545894187.5,1,56,34,0,0,0,0,0
1570545894218.75,-5,58,33,0,0,0,0,0
1570545894250,-13,55,30,0,0,0,0,0
1570545894281.25,-10,51,37,0,0,0,0,0
1570545894312.5,13,54,34,0,0,0,0,0
1570545894343.75,0,52,26,0,0,0,0,0
1570545894375,0,52,30,0,0,0,0,0
1570545894406.25,22,51,42,0,0,0,0,0
1570545894437.5,16,51,38,0,0,0,0,0
1570545894468.75,0,51,21,0,0,0,0,0
1570545894500,5,51,20,0,0,0,0,0
1570545894531.25,38,46,37,0,0,0,0,0
1570545894562.5,51,43,46,0,0,0,0,0
1570545894593.75,39,44,36,0,0,0,0,0
1570545894625,34,45,36,0,0,0,0,0
1570545894656.25,25,46,32,0,0,0,0,0
1570545894687.5,38,43,37,0,0,0,0,0
1570545894718.75,33,42,36,0,0,0,0,0
1570545894750,27,42,30,0,0,0,0,0
1570545894781.25,31,42,32,0,0,0,0,0
1570545894812.5,44,40,41,0,0,0,0,0
1570545894843.75,41,39,40,0,0,0,0,0
1570545894875,30,42,34,0,0,0,0,0
1570545894906.25,34,40,36,0,0,0,0,0
1570545894937.5,40,37,39,0,0,0,0,0
1570545894968.75,41,37,44,0,0,0,0,0
1570545895000,29,39,37,0,0,0,0,0
1570545895031.25,28,40,37,0,0,0,0,0
1570545895062.5,31,39,41,0,0,0,0,0
1570545895093.75,34,38,43,0,0,0,0,0
1570545895125,31,38,42,0,0,0,0,0
1570545895156.25,28,40,42,0,0,0,0,0
1570545895187.5,29,40,43,0,0,0,0,0
1570545895218.75,28,39,43,0,0,0,0,0
1570545895250,23,40,39,0,0,0,0,0
1570545895281.25,26,42,41,0,0,0,0,0
1570545895312.5,30,43,45,0,0,0,0,0
1570545895343.75,32,42,44,0,0,0,0,0
1570545895375,27,42,39,0,0,0,0,0
1570545895406.25,23,43,40,0,0,0,0,0
1570545895437.5,18,45,37,0,0,0,0,0
1570545895468.75,20,46,37,0,0,0,0,0
1570545895500,22,43,42,0,0,0,0,0
1570545895531.25,19,45,41,0,0,0,0,0
1570545895562.5,20,46,39,0,0,0,0,0
1570545895593.75,23,47,41,0,0,0,0,0
1570545895625,21,46,42,0,0,0,0,0
1570545895656.25,17,47,41,0,0,0,0,0
1570545895687.5,12,44,40,0,0,0,0,0
1570545895718.75,11,47,41,0,0,0,0,0
1570545895750,20,49,42,0,0,0,0,0
1570545895781.25,29,47,44,0,0,0,0,0
1570545895812.5,19,48,40,0,0,0,0,0
1570545895843.75,10,49,35,0,0,0,0,0
1570545895875,2,52,34,0,0,0,0,0
1570545895906.25,3,51,38,0,0,0,0,0
1570545895937.5,9,50,39,0,0,0,0,0
1570545895968.75,13,50,40,0,0,0,0,0
1570545896000,16,50,41,0,0,0,0,0
1570545896031.25,6,52,36,0,0,0,0,0
1570545896062.5,8,51,35,0,0,0,0,0
1570545896093.75,-7,54,28,0,0,0,0,0
1570545896125,7,49,31,0,0,0,0,0
1570545896156.25,5,50,34,0,0,0,0,0
1570545896187.5,-7,52,28,0,0,0,0,0
1570545896218.75,-31,50,32,0,0,0,0,0
1570545896250,-36,50,40,0,0,0,0,0
1570545896281.25,-58,47,36,0,0,0,0,0
1570545896312.5,-34,44,42,0,0,0,0,0
1570545896343.75,-23,45,40,0,0,0,0,0
1570545896375,-19,49,35,0,0,0,0,0
1570545896406.25,-19,50,35,0,0,0,0,0
1570545896437.5,-22,52,30,0,0,0,0,0
1570545896468.75,-24,52,31,0,0,0,0,0
1570545896500,-18,52,35,0,0,0,0,0
1570545896531.25,-17,53,33,0,0,0,0,0
1570545896562.5,-16,52,34,0,0,0,0,0
1570545896593.75,-14,52,34,0,0,0,0,0
1570545896625,-13,53,35,0,0,0,0,0
1570545896656.25,-6,54,33,0,0,0,0,0
1570545896687.5,-9,59,25,0,0,0,0,0
1570545896718.75,0,52,40,0,0,0,0,0
1570545896750,9,50,44,0,0,0,0,0
1570545896781.25,-5,48,40,0,0,0,0,0
1570545896812.5,-3,50,38,0,0,0,0,0
1570545896843.75,1,55,32,0,0,0,0,0
1570545896875,0,54,34,0,0,0,0,0
1570545896906.25,-2,51,34,0,0,0,0,0
1570545896937.5,-4,54,32,0,0,0,0,0
1570545896968.75,17,50,37,0,0,0,0,0
1570545897000,10,49,35,0,0,0,0,0
1570545897031.25,11,49,33,0,0,0,0,0
1570545897062.5,7,50,27,0,0,0,0,0
1570545897093.75,16,49,27,0,0,0,0,0
1570545897125,38,46,38,0,0,0,0,0
1570545897156.25,30,44,38,0,0,0,0,0
1570545897187.5,32,44,36,0,0,0,0,0
1570545897218.75,32,41,40,0,0,0,0,0
1570545897250,34,41,35,0,0,0,0,0
1570545897281.25,28,42,29,0,0,0,0,0
1570545897312.5,42,40,36,0,0,0,0,0
1570545897343.75,46,39,38,0,0,0,0,0
1570545897375,39,38,37,0,0,0,0,0
1570545897406.25,36,37,35,0,0,0,0,0
1570545897437.5,52,36,45,0,0,0,0,0
1570545897468.75,53,36,46,0,0,0,0,0
1570545897500,36,39,36,0,0,0,0,0
1570545897531.25,30,40,37,0,0,0,0,0
1570545897562.5,30,40,38,0,0,0,0,0
1570545897593.75,30,40,38,0,0,0,0,0
1570545897625,29,42,39,0,0,0,0,0
1570545897656.25,28,42,39,0,0,0,0,0
1570545897687.5,27,43,41,0,0,0,0,0
1570545897718.75,24,44,38,0,0,0,0,0
1570545897750,21,44,36,0,0,0,0,0
1570545897781.25,25,44,41,0,0,0,0,0
1570545897812.5,24,45,40,0,0,0,0,0
1570545897843.75,25,44,44,0,0,0,0,0
1570545897875,24,41,43,0,0,0,0,0
1570545897906.25,17,49,39,0,0,0,0,0
1570545897937.5,18,47,40,0,0,0,0,0
1570545897968.75,14,45,38,0,0,0,0,0
1570545898000,12,48,41,0,0,0,0,0
1570545898031.25,9,48,41,0,0,0,0,0
1570545898062.5,11,47,43,0,0,0,0,0
1570545898093.75,13,46,43,0,0,0,0,0
1570545898125,14,46,43,0,0,0,0,0
1570545898156.25,14,46,44,0,0,0,0,0
1570545898187.5,10,49,43,0,0,0,0,0
1570545898218.75,9,49,41,0,0,0,0,0
1570545898250,4,48,39,0,0,0,0,0
1570545898281.25,4,50,40,0,0,0,0,0
1570545898312.5,4,50,42,0,0,0,0,0
1570545898343.75,-5,50,37,0,0,0,0,0
1570545898375,-4,51,38,0,0,0,0,0
1570545898406.25,2,50,38,0,0,0,0,0
1570545898437.5,0,51,37,0,0,0,0,0
1570545898468.75,1,49,41,0,0,0,0,0
1570545898500,0,49,42,0,0,0,0,0
1570545898531.25,9,50,44,0,0,0,0,0
1570545898562.5,11,50,43,0,0,0,0,0
1570545898593.75,2,51,39,0,0,0,0,0
1570545898625,-3,50,38,0,0,0,0,0
1570545898656.25,-10,50,37,0,0,0,0,0
1570545898687.5,-6,49,37,0,0,0,0,0
1570545898718.75,-5,50,36,0,0,0,0,0
1570545898750,-3,51,40,0,0,0,0,0
1570545898781.25,-6,52,38,0,0,0,0,0
1570545898812.5,-13,51,37,0,0,0,0,0
1570545898843.75,-18,52,36,0,0,0,0,0
1570545898875,-25,49,37,0,0,0,0,0
1570545898906.25,-27,46,37,0,0,0,0,0
1570545898937.5,-22,47,40,0,0,0,0,0
1570545898968.75,-22,50,39,0,0,0,0,0
1570545899000,-26,50,36,0,0,0,0,0
1570545899031.25,-22,51,36,0,0,0,0,0
1570545899062.5,-16,51,34,0,0,0,0,0
1570545899093.75,-15,51,32,0,0,0,0,0
1570545899125,-14,51,35,0,0,0,0,0
1570545899156.25,-12,50,40,0,0,0,0,0
1570545899187.5,-14,51,40,0,0,0,0,0
1570545899218.75,-17,52,32,0,0,0,0,0
1570545899250,-12,51,34,0,0,0,0,0
1570545899281.25,-6,54,30,0,0,0,0,0
1570545899312.5,0,51,33,0,0,0,0,0
1570545899343.75,3,44,39,0,0,0,0,0
1570545899375,9,44,36,0,0,0,0,0
1570545899406.25,29,47,42,0,0,0,0,0
1570545899437.5,25,49,39,0,0,0,0,0
1570545899468.75,18,46,37,0,0,0,0,0
1570545899500,23,42,42,0,0,0,0,0
1570545899531.25,34,41,41,0,0,0,0,0
1570545899562.5,26,40,41,0,0,0,0,0
1570545899593.75,24,41,36,0,0,0,0,0
1570545899625,31,40,31,0,0,0,0,0
1570545899656.25,45,38,36,0,0,0,0,0
1570545899687.5,56,37,45,0,0,0,0,0
1570545899718.75,48,38,40,0,0,0,0,0
1570545899750,46,38,40,0,0,0,0,0
1570545899781.25,42,39,39,0,0,0,0,0
1570545899812.5,34,41,37,0,0,0,0,0
1570545899843.75,34,41,40,0,0,0,0,0
1570545899875,33,39,37,0,0,0,0,0
1570545899906.25,23,42,34,0,0,0,0,0
1570545899937.5,19,44,37,0,0,0,0,0
1570545899968.75,19,44,36,0,0,0,0,0
1570545900000,21,44,38,0,0,0,0,0
1570545900031.25,30,43,43,0,0,0,0,0
1570545900062.5,28,43,43,0,0,0,0,0
1570545900093.75,25,44,40,0,0,0,0,0
1570545900125,22,44,41,0,0,0,0,0
1570545900156.25,19,47,38,0,0,0,0,0
1570545900187.5,16,47,36,0,0,0,0,0
1570545900218.75,6,47,39,0,0,0,0,0
1570545900250,7,48,39,0,0,0,0,0
1570545900281.25,23,48,43,0,0,0,0,0
1570545900312.5,21,46,43,0,0,0,0,0
1570545900343.75,12,47,40,0,0,0,0,0
1570545900375,11,47,42,0,0,0,0,0
1570545900406.25,12,48,41,0,0,0,0,0
1570545900437.5,10,48,41,0,0,0,0,0
1570545900468.75,10,48,42,0,0,0,0,0
1570545900500,5,49,42,0,0,0,0,0
1570545900531.25,4,48,40,0,0,0,0,0
1570545900562.5,6,49,41,0,0,0,0,0
1570545900593.75,7,49,41,0,0,0,0,0
1570545900625,9,49,42,0,0,0,0,0
1570545900656.25,6,49,42,0,0,0,0,0
1570545900687.5,4,50,41,0,0,0,0,0
1570545900718.75,5,50,40,0,0,0,0,0
1570545900750,4,50,40,0,0,0,0,0
1570545900781.25,5,50,41,0,0,0,0,0
1570545900812.5,4,50,40,0,0,0,0,0
1570545900843.75,3,52,40,0,0,0,0,0
1570545900875,-1,50,38,0,0,0,0,0
1570545900906.25,-2,50,40,0,0,0,0,0
1570545900937.5,2,50,42,0,0,0,0,0
1570545900968.75,-8,49,38,0,0,0,0,0
1570545901000,-9,49,38,0,0,0,0,0
1570545901031.25,-10,51,39,0,0,0,0,0
1570545901062.5,-4,50,43,0,0,0,0,0
1570545901093.75,-2,49,39,0,0,0,0,0
1570545901125,4,49,40,0,0,0,0,0
1570545901156.25,-2,49,39,0,0,0,0,0
1570545901187.5,-29,50,35,0,0,0,0,0
1570545901218.75,-41,52,29,0,0,0,0,0
1570545901250,-12,49,36,0,0,0,0,0
1570545901281.25,1,47,41,0,0,0,0,0
1570545901312.5,-21,51,30,0,0,0,0,0
1570545901343.75,-29,52,26,0,0,0,0,0
1570545901375,-32,51,28,0,0,0,0,0
1570545901406.25,-35,51,31,0,0,0,0,0
1570545901437.5,-28,45,42,0,0,0,0,0
1570545901468.75,-23,44,46,0,0,0,0,0
1570545901500,-23,46,39,0,0,0,0,0
1570545901531.25,-33,50,29,0,0,0,0,0
1570545901562.5,-36,50,26,0,0,0,0,0
1570545901593.75,-33,49,32,0,0,0,0,0
1570545901625,-29,49,39,0,0,0,0,0
1570545901656.25,-19,48,39,0,0,0,0,0
1570545901687.5,-19,48,34,0,0,0,0,0
1570545901718.75,-26,50,29,0,0,0,0,0
1570545901750,-29,50,31,0,0,0,0,0
1570545901781.25,-15,47,41,0,0,0,0,0
1570545901812.5,-12,48,37,0,0,0,0,0
1570545901843.75,-15,51,33,0,0,0,0,0
1570545901875,-8,50,38,0,0,0,0,0
1570545901906.25,-2,49,37,0,0,0,0,0
1570545901937.5,-11,46,34,0,0,0,0,0
1570545901968.75,-17,45,29,0,0,0,0,0
1570545902000,28,43,45,0,0,0,0,0
1570545902031.25,27,44,47,0,0,0,0,0
1570545902062.5,17,44,43,0,0,0,0,0
1570545902093.75,7,42,40,0,0,0,0,0
1570545902125,19,40,42,0,0,0,0,0
1570545902156.25,34,39,47,0,0,0,0,0
1570545902187.5,34,42,44,0,0,0,0,0
1570545902218.75,37,38,40,0,0,0,0,0
1570545902250,49,37,47,0,0,0,0,0
1570545902281.25,43,35,44,0,0,0,0,0
1570545902312.5,34,38,45,0,0,0,0,0
1570545902343.75,29,40,44,0,0,0,0,0
1570545902375,30,41,43,0,0,0,0,0
1570545902406.25,44,38,45,0,0,0,0,0
1570545902437.5,41,42,43,0,0,0,0,0
1570545902468.75,16,34,46,0,0,0,0,0
1570545902500,13,41,46,0,0,0,0,0
1570545902531.25,18,43,38,0,0,0,0,0
1570545902562.5,26,44,47,0,0,0,0,0
1570545902593.75,29,41,47,0,0,0,0,0
1570545902625,21,40,44,0,0,0,0,0
1570545902656.25,13,41,43,0,0,0,0,0
1570545902687.5,8,43,43,0,0,0,0,0
1570545902718.75,17,43,45,0,0,0,0,0
1570545902750,14,44,44,0,0,0,0,0
1570545902781.25,10,44,43,0,0,0,0,0
1570545902812.5,15,44,46,0,0,0,0,0
1570545902843.75,14,45,45,0,0,0,0,0
1570545902875,12,45,45,0,0,0,0,0
1570545902906.25,15,45,46,0,0,0,0,0
1570545902937.5,11,44,44,0,0,0,0,0
1570545902968.75,7,45,44,0,0,0,0,0
1570545903000,10,45,47,0,0,0,0,0
1570545903031.25,10,46,48,0,0,0,0,0
1570545903062.5,11,46,47,0,0,0,0,0
1570545903093.75,-1,46,39,0,0,0,0,0
1570545903125,-11,46,40,0,0,0,0,0
1570545903156.25,-17,43,33,0,0,0,0,0
1570545903187.5,-32,46,35,0,0,0,0,0
1570545903218.75,-33,48,36,0,0,0,0,0
1570545903250,-22,45,40,0,0,0,0,0
1570545903281.25,-18,47,38,0,0,0,0,0
1570545903312.5,-16,47,36,0,0,0,0,0
1570545903343.75,-24,49,34,0,0,0,0,0
1570545903375,-27,51,34,0,0,0,0,0
1570545903406.25,-25,50,32,0,0,0,0,0
1570545903437.5,-25,50,31,0,0,0,0,0
1570545903468.75,-25,50,30,0,0,0,0,0
1570545903500,-25,50,28,0,0,0,0,0
1570545903531.25,-41,50,23,0,0,0,0,0
1570545903562.5,-50,53,19,0,0,0,0,0
1570545903593.75,-37,52,23,0,0,0,0,0
1570545903625,-15,50,32,0,0,0,0,0
1570545903656.25,-15,51,32,0,0,0,0,0
1570545903687.5,-20,51,28,0,0,0,0,0
1570545903718.75,-22,52,27,0,0,0,0,0
1570545903750,-25,54,24,0,0,0,0,0
1570545903781.25,-31,53,21,0,0,0,0,0
1570545903812.5,-40,56,19,0,0,0,0,0
1570545903843.75,-35,54,21,0,0,0,0,0
1570545903875,-26,54,23,0,0,0,0,0
1570545903906.25,-23,53,24,0,0,0,0,0
1570545903937.5,-25,54,23,0,0,0,0,0
1570545903968.75,-30,54,22,0,0,0,0,0
1570545904000,-32,54,21,0,0,0,0,0
1570545904031.25,-26,54,24,0,0,0,0,0
1570545904062.5,-27,54,23,0,0,0,0,0
1570545904093.75,-22,54,25,0,0,0,0,0
1570545904125,-22,54,24,0,0,0,0,0
1570545904156.25,-19,55,24,0,0,0,0,0
1570545904187.5,-22,55,24,0,0,0,0,0
1570545904218.75,-22,55,22,0,0,0,0,0
1570545904250,-27,56,21,0,0,0,0,0
1570545904281.25,-38,56,20,0,0,0,0,0
1570545904312.5,-37,54,18,0,0,0,0,0
1570545904343.75,-29,51,21,0,0,0,0,0
1570545904375,-30,53,28,0,0,0,0,0
1570545904406.25,-20,53,28,0,0,0,0,0
1570545904437.5,-23,55,25,0,0,0,0,0
1570545904468.75,-25,55,24,0,0,0,0,0
1570545904500,-22,56,25,0,0,0,0,0
1570545904531.25,-23,55,24,0,0,0,0,0
1570545904562.5,-24,55,23,0,0,0,0,0
1570545904593.75,-22,55,24,0,0,0,0,0
1570545904625,-23,55,24,0,0,0,0,0
1570545904656.25,-20,55,24,0,0,0,0,0
1570545904687.5,-15,54,24,0,0,0,0,0
1570545904718.75,-17,55,25,0,0,0,0,0
1570545904750,-26,57,25,0,0,0,0,0
1570545904781.25,-28,57,22,0,0,0,0,0
1570545904812.5,-29,56,20,0,0,0,0,0
1570545904843.75,-26,55,23,0,0,0,0,0
1570545904875,-26,55,23,0,0,0,0,0
1570545904906.25,-28,53,23,0,0,0,0,0
1570545904937.5,-32,52,22,0,0,0,0,0
1570545904968.75,-27,54,24,0,0,0,0,0
1570545905000,-24,52,26,0,0,0,0,0
1570545905031.25,-30,52,29,0,0,0,0,0
1570545905062.5,-25,52,20,0,0,0,0,0
1570545905093.75,-35,55,23,0,0,0,0,0
1570545905125,-34,54,21,0,0,0,0,0
1570545905156.25,-25,56,18,0,0,0,0,0
1570545905187.5,-22,56,25,0,0,0,0,0
1570545905218.75,-22,55,28,0,0,0,0,0
1570545905250,-20,55,27,0,0,0,0,0
1570545905281.25,-16,54,26,0,0,0,0,0
1570545905312.5,-11,57,27,0,0,0,0,0
1570545905343.75,-9,57,25,0,0,0,0,0
1570545905375,-8,58,22,0,0,0,0,0
1570545905406.25,-7,59,23,0,0,0,0,0
1570545905437.5,-7,58,28,0,0,0,0,0
1570545905468.75,-3,58,30,0,0,0,0,0
1570545905500,-1,57,28,0,0,0,0,0
1570545905531.25,-5,57,27,0,0,0,0,0
1570545905562.5,-22,56,21,0,0,0,0,0
1570545905593.75,8,55,34,0,0,0,0,0
1570545905625,20,55,39,0,0,0,0,0
1570545905656.25,6,57,27,0,0,0,0,0
1570545905687.5,6,58,25,0,0,0,0,0
1570545905718.75,5,57,26,0,0,0,0,0
1570545905750,11,56,27,0,0,0,0,0
1570545905781.25,17,53,28,0,0,0,0,0
1570545905812.5,14,52,29,0,0,0,0,0
1570545905843.75,26,51,38,0,0,0,0,0
1570545905875,27,52,37,0,0,0,0,0
1570545905906.25,15,52,28,0,0,0,0,0
1570545905937.5,13,54,26,0,0,0,0,0
1570545905968.75,18,50,28,0,0,0,0,0
1570545906000,38,43,32,0,0,0,0,0
1570545906031.25,41,45,35,0,0,0,0,0
1570545906062.5,37,46,25,0,0,0,0,0
1570545906093.75,38,48,21,0,0,0,0,0
1570545906125,38,48,19,0,0,0,0,0
1570545906156.25,37,48,21,0,0,0,0,0
1570545906187.5,45,45,22,0,0,0,0,0
1570545906218.75,48,43,29,0,0,0,0,0
1570545906250,40,45,25,0,0,0,0,0
1570545906281.25,38,47,20,0,0,0,0,0
1570545906312.5,32,47,17,0,0,0,0,0
1570545906343.75,32,44,27,0,0,0,0,0
1570545906375,36,44,33,0,0,0,0,0
1570545906406.25,39,40,29,0,0,0,0,0
1570545906437.5,45,41,27,0,0,0,0,0
1570545906468.75,42,38,26,0,0,0,0,0
1570545906500,43,39,29,0,0,0,0,0
1570545906531.25,50,36,30,0,0,0,0,0
1570545906562.5,45,37,28,0,0,0,0,0
1570545906593.75,40,39,26,0,0,0,0,0
1570545906625,37,39,31,0,0,0,0,0
1570545906656.25,39,39,33,0,0,0,0,0
1570545906687.5,37,39,32,0,0,0,0,0
1570545906718.75,38,38,33,0,0,0,0,0
1570545906750,40,37,36,0,0,0,0,0
1570545906781.25,42,35,36,0,0,0,0,0
1570545906812.5,39,38,34,0,0,0,0,0
1570545906843.75,33,38,31,0,0,0,0,0
1570545906875,34,38,35,0,0,0,0,0
1570545906906.25,40,33,37,0,0,0,0,0
1570545906937.5,46,31,40,0,0,0,0,0
1570545906968.75,47,31,40,0,0,0,0,0
1570545907000,38,33,37,0,0,0,0,0
1570545907031.25,36,33,37,0,0,0,0,0
1570545907062.5,38,33,40,0,0,0,0,0
1570545907093.75,41,33,41,0,0,0,0,0
1570545907125,41,32,42,0,0,0,0,0
1570545907156.25,39,31,44,0,0,0,0,0
1570545907187.5,24,37,40,0,0,0,0,0
1570545907218.75,34,30,39,0,0,0,0,0
1570545907250,47,28,50,0,0,0,0,0
1570545907281.25,32,29,51,0,0,0,0,0
1570545907312.5,28,32,46,0,0,0,0,0
1570545907343.75,34,29,60,0,0,0,0,0
1570545907375,23,32,48,0,0,0,0,0
1570545907406.25,14,36,46,0,0,0,0,0
1570545907437.5,12,35,47,0,0,0,0,0
1570545907468.75,11,32,52,0,0,0,0,0
1570545907500,11,32,55,0,0,0,0,0
1570545907531.25,14,31,51,0,0,0,0,0
1570545907562.5,16,33,52,0,0,0,0,0
1570545907593.75,12,36,54,0,0,0,0,0
1570545907625,10,31,57,0,0,0,0,0
1570545907656.25,12,32,56,0,0,0,0,0
1570545907687.5,8,35,51,0,0,0,0,0
1570545907718.75,4,36,49,0,0,0,0,0
1570545907750,5,34,54,0,0,0,0,0
1570545907781.25,7,34,54,0,0,0,0,0
1570545907812.5,2,44,43,0,0,0,0,0
1570545907843.75,8,26,49,0,0,0,0,0
1570545907875,11,29,60,0,0,0,0,0
1570545907906.25,11,30,51,0,0,0,0,0
1570545907937.5,11,37,43,0,0,0,0,0
1570545907968.75,6,37,42,0,0,0,0,0
1570545908000,15,30,60,0,0,0,0,0
1570545908031.25,20,30,52,0,0,0,0,0
1570545908062.5,17,33,46,0,0,0,0,0
1570545908093.75,20,34,51,0,0,0,0,0
1570545908125,24,34,47,0,0,0,0,0
1570545908156.25,27,35,39,0,0,0,0,0
1570545908187.5,18,32,48,0,0,0,0,0
1570545908218.75,33,37,47,0,0,0,0,0
1570545908250,43,26,45,0,0,0,0,0
1570545908281.25,41,32,34,0,0,0,0,0
1570545908312.5,46,33,35,0,0,0,0,0
1570545908343.75,44,34,30,0,0,0,0,0
1570545908375,46,33,34,0,0,0,0,0
1570545908406.25,39,31,40,0,0,0,0,0
1570545908437.5,45,30,41,0,0,0,0,0
1570545908468.75,45,29,38,0,0,0,0,0
1570545908500,44,29,36,0,0,0,0,0
1570545908531.25,43,29,37,0,0,0,0,0
1570545908562.5,47,29,33,0,0,0,0,0
1570545908593.75,48,27,26,0,0,0,0,0
1570545908625,51,33,29,0,0,0,0,0
1570545908656.25,52,33,29,0,0,0,0,0
1570545908687.5,48,32,25,0,0,0,0,0
1570545908718.75,49,31,23,0,0,0,0,0
1570545908750,60,28,24,0,0,0,0,0
1570545908781.25,68,29,25,0,0,0,0,0
1570545908812.5,43,30,26,0,0,0,0,0
1570545908843.75,45,38,21,0,0,0,0,0
1570545908875,45,41,14,0,0,0,0,0
1570545908906.25,49,44,6,0,0,0,0,0
1570545908937.5,46,43,5,0,0,0,0,0
1570545908968.75,53,38,12,0,0,0,0,0
1570545909000,36,38,12,0,0,0,0,0
1570545909031.25,27,42,20,0,0,0,0,0
1570545909062.5,24,43,20,0,0,0,0,0
1570545909093.75,31,43,21,0,0,0,0,0
1570545909125,39,41,17,0,0,0,0,0
1570545909156.25,52,43,8,0,0,0,0,0
1570545909187.5,52,37,7,0,0,0,0,0
1570545909218.75,82,21,27,0,0,0,0,0
1570545909250,56,23,23,0,0,0,0,0
1570545909281.25,39,20,25,0,0,0,0,0
1570545909312.5,50,32,34,0,0,0,0,0
1570545909343.75,47,36,27,0,0,0,0,0
1570545909375,52,36,7,0,0,0,0,0
1570545909406.25,57,33,3,0,0,0,0,0
1570545909437.5,56,32,10,0,0,0,0,0
1570545909468.75,52,30,17,0,0,0,0,0
1570545909500,48,33,35,0,0,0,0,0
1570545909531.25,47,33,34,0,0,0,0,0
1570545909562.5,55,31,22,0,0,0,0,0
1570545909593.75,62,32,19,0,0,0,0,0
1570545909625,58,34,16,0,0,0,0,0
1570545909656.25,56,38,13,0,0,0,0,0
1570545909687.5,53,38,13,0,0,0,0,0
1570545909718.75,21,42,11,0,0,0,0,0
1570545909750,16,45,7,0,0,0,0,0
1570545909781.25,9,49,14,0,0,0,0,0
1570545909812.5,31,47,18,0,0,0,0,0
1570545909843.75,30,42,19,0,0,0,0,0
1570545909875,13,39,8,0,0,0,0,0
1570545909906.25,62,23,-11,0,0,0,0,0
1570545909937.5,127,12,30,0,0,0,0,0
1570545909968.75,54,11,21,0,0,0,0,0
1570545910000,57,24,35,0,0,0,0,0
1570545910031.25,66,26,30,0,0,0,0,0
1570545910062.5,54,33,19,0,0,0,0,0
1570545910093.75,44,38,16,0,0,0,0,0
1570545910125,74,39,15,0,0,0,0,0
1570545910156.25,71,37,11,0,0,0,0,0
1570545910187.5,50,39,-1,0,0,0,0,0
1570545910218.75,23,39,-10,0,0,0,0,0
1570545910250,3,45,12,0,0,0,0,0
1570545910281.25,7,50,38,0,0,0,0,0
1570545910312.5,-18,61,24,0,0,0,0,0
1570545910343.75,15,51,27,0,0,0,0,0
1570545910375,61,43,47,0,0,0,0,0
1570545910406.25,11,39,27,0,0,0,0,0
1570545910437.5,5,42,22,0,0,0,0,0
1570545910468.75,38,48,21,0,0,0,0,0
1570545910500,49,48,22,0,0,0,0,0
1570545910531.25,53,42,23,0,0,0,0,0
1570545910562.5,56,41,29,0,0,0,0,0
1570545910593.75,62,40,34,0,0,0,0,0
1570545910625,61,40,35,0,0,0,0,0
1570545910656.25,31,41,31,0,0,0,0,0
1570545910687.5,30,45,29,0,0,0,0,0
1570545910718.75,23,45,22,0,0,0,0,0
1570545910750,10,47,19,0,0,0,0,0
1570545910781.25,-8,55,19,0,0,0,0,0
1570545910812.5,-3,55,26,0,0,0,0,0
1570545910843.75,5,48,38,0,0,0,0,0
1570545910875,21,41,42,0,0,0,0,0
1570545910906.25,16,40,31,0,0,0,0,0
1570545910937.5,44,35,27,0,0,0,0,0
1570545910968.75,36,42,9,0,0,0,0,0
1570545911000,71,30,10,0,0,0,0,0
1570545911031.25,122,19,51,0,0,0,0,0
1570545911062.5,78,16,49,0,0,0,0,0
1570545911093.75,40,21,30,0,0,0,0,0
1570545911125,40,37,29,0,0,0,0,0
1570545911156.25,35,38,27,0,0,0,0,0
1570545911187.5,47,45,24,0,0,0,0,0
1570545911218.75,51,45,14,0,0,0,0,0
1570545911250,33,44,5,0,0,0,0,0
1570545911281.25,15,47,20,0,0,0,0,0
1570545911312.5,13,47,28,0,0,0,0,0
1570545911343.75,11,47,35,0,0,0,0,0
1570545911375,24,45,38,0,0,0,0,0
1570545911406.25,15,43,27,0,0,0,0,0
1570545911437.5,3,41,5,0,0,0,0,0
1570545911468.75,95,20,33,0,0,0,0,0
1570545911500,127,21,63,0,0,0,0,0
1570545911531.25,73,16,43,0,0,0,0,0
1570545911562.5,45,20,37,0,0,0,0,0
1570545911593.75,25,39,31,0,0,0,0,0
1570545911625,56,44,8,0,0,0,0,0
1570545911656.25,41,42,-3,0,0,0,0,0
1570545911687.5,-17,45,6,0,0,0,0,0
1570545911718.75,-32,51,4,0,0,0,0,0
1570545911750,-11,53,40,0,0,0,0,0
1570545911781.25,24,47,87,0,0,0,0,0
1570545911812.5,-15,42,51,0,0,0,0,0
1570545911843.75,-27,35,32,0,0,0,0,0
1570545911875,37,32,39,0,0,0,0,0
1570545911906.25,56,34,26,0,0,0,0,0
1570545911937.5,91,32,17,0,0,0,0,0
1570545911968.75,99,30,30,0,0,0,0,0
1570545912000,68,27,47,0,0,0,0,0
1570545912031.25,19,35,42,0,0,0,0,0
1570545912062.5,32,41,47,0,0,0,0,0
1570545912093.75,38,43,19,0,0,0,0,0
1570545912125,24,42,14,0,0,0,0,0
1570545912156.25,-15,47,15,0,0,0,0,0
1570545912187.5,-33,51,10,0,0,0,0,0
1570545912218.75,10,50,64,0,0,0,0,0
1570545912250,21,44,76,0,0,0,0,0
1570545912281.25,8,37,55,0,0,0,0,0
1570545912312.5,1,38,45,0,0,0,0,0
1570545912343.75,31,41,26,0,0,0,0,0
1570545912375,53,40,13,0,0,0,0,0
1570545912406.25,98,34,12,0,0,0,0,0
1570545912437.5,73,31,36,0,0,0,0,0
1570545912468.75,43,32,44,0,0,0,0,0
1570545912500,35,40,43,0,0,0,0,0
1570545912531.25,39,44,32,0,0,0,0,0
1570545912562.5,16,43,15,0,0,0,0,0
1570545912593.75,-13,42,13,0,0,0,0,0
1570545912625,-36,54,18,0,0,0,0,0
1570545912656.25,-26,58,29,0,0,0,0,0
1570545912687.5,40,40,87,0,0,0,0,0
1570545912718.75,22,41,62,0,0,0,0,0
1570545912750,11,38,32,0,0,0,0,0
1570545912781.25,19,37,24,0,0,0,0,0
1570545912812.5,70,37,28,0,0,0,0,0
1570545912843.75,91,34,34,0,0,0,0,0
1570545912875,82,32,41,0,0,0,0,0
1570545912906.25,36,35,40,0,0,0,0,0
1570545912937.5,36,39,37,0,0,0,0,0
1570545912968.75,26,43,27,0,0,0,0,0
1570545913000,8,45,20,0,0,0,0,0
1570545913031.25,-22,54,10,0,0,0,0,0
1570545913062.5,-31,56,10,0,0,0,0,0
1570545913093.75,13,43,52,0,0,0,0,0
1570545913125,32,38,81,0,0,0,0,0
1570545913156.25,13,40,44,0,0,0,0,0
1570545913187.5,25,39,39,0,0,0,0,0
1570545913218.75,56,37,19,0,0,0,0,0
1570545913250,78,37,16,0,0,0,0,0
1570545913281.25,97,31,35,0,0,0,0,0
1570545913312.5,47,34,39,0,0,0,0,0
1570545913343.75,37,37,36,0,0,0,0,0
1570545913375,38,43,29,0,0,0,0,0
1570545913406.25,31,45,21,0,0,0,0,0
1570545913437.5,-7,46,16,0,0,0,0,0
1570545913468.75,-29,50,13,0,0,0,0,0
1570545913500,-26,59,33,0,0,0,0,0
1570545913531.25,9,46,69,0,0,0,0,0
1570545913562.5,-2,41,56,0,0,0,0,0
1570545913593.75,-26,42,28,0,0,0,0,0
1570545913625,17,37,30,0,0,0,0,0
1570545913656.25,48,37,28,0,0,0,0,0
1570545913687.5,88,39,27,0,0,0,0,0
1570545913718.75,91,28,43,0,0,0,0,0
1570545913750,70,27,53,0,0,0,0,0
1570545913781.25,25,36,43,0,0,0,0,0
1570545913812.5,36,41,41,0,0,0,0,0
1570545913843.75,34,48,30,0,0,0,0,0
1570545913875,37,45,25,0,0,0,0,0
1570545913906.25,8,46,13,0,0,0,0,0
1570545913937.5,-13,44,11,0,0,0,0,0
1570545913968.75,-26,53,21,0,0,0,0,0
1570545914000,-32,57,42,0,0,0,0,0
1570545914031.25,1,39,70,0,0,0,0,0
1570545914062.5,-15,40,60,0,0,0,0,0
1570545914093.75,-18,40,58,0,0,0,0,0
1570545914125,-7,43,47,0,0,0,0,0
1570545914156.25,-5,48,43,0,0,0,0,0
1570545914187.5,-6,51,29,0,0,0,0,0
1570545914218.75,2,48,26,0,0,0,0,0
1570545914250,28,47,36,0,0,0,0,0
1570545914281.25,35,48,40,0,0,0,0,0
1570545914312.5,46,41,55,0,0,0,0,0
1570545914343.75,45,38,64,0,0,0,0,0
1570545914375,23,40,55,0,0,0,0,0
1570545914406.25,22,40,43,0,0,0,0,0
1570545914437.5,29,45,36,0,0,0,0,0
1570545914468.75,11,48,29,0,0,0,0,0
1570545914500,-3,50,22,0,0,0,0,0
1570545914531.25,-30,59,11,0,0,0,0,0
1570545914562.5,-37,60,15,0,0,0,0,0
1570545914593.75,-23,48,65,0,0,0,0,0
1570545914625,-23,43,60,0,0,0,0,0
1570545914656.25,-12,42,41,0,0,0,0,0
1570545914687.5,0,43,47,0,0,0,0,0
1570545914718.75,12,49,41,0,0,0,0,0
1570545914750,-11,59,20,0,0,0,0,0
1570545914781.25,15,49,29,0,0,0,0,0
1570545914812.5,28,43,45,0,0,0,0,0
1570545914843.75,54,43,67,0,0,0,0,0
1570545914875,24,43,48,0,0,0,0,0
1570545914906.25,18,46,41,0,0,0,0,0
1570545914937.5,12,49,34,0,0,0,0,0
1570545914968.75,7,51,24,0,0,0,0,0
1570545915000,-14,56,16,0,0,0,0,0
1570545915031.25,-21,56,18,0,0,0,0,0
1570545915062.5,-9,48,65,0,0,0,0,0
1570545915093.75,-41,44,54,0,0,0,0,0
1570545915125,-24,44,39,0,0,0,0,0
1570545915156.25,-15,47,37,0,0,0,0,0
1570545915187.5,2,54,37,0,0,0,0,0
1570545915218.75,8,53,38,0,0,0,0,0
1570545915250,3,50,36,0,0,0,0,0
1570545915281.25,-4,49,42,0,0,0,0,0
1570545915312.5,-6,50,44,0,0,0,0,0
1570545915343.75,9,50,45,0,0,0,0,0
1570545915375,0,52,37,0,0,0,0,0
1570545915406.25,2,55,34,0,0,0,0,0
1570545915437.5,9,52,40,0,0,0,0,0
1570545915468.75,38,46,55,0,0,0,0,0
1570545915500,26,45,46,0,0,0,0,0
1570545915531.25,9,50,33,0,0,0,0,0
1570545915562.5,4,51,33,0,0,0,0,0
1570545915593.75,5,53,33,0,0,0,0,0
1570545915625,0,52,34,0,0,0,0,0
1570545915656.25,0,48,40,0,0,0,0,0
1570545915687.5,-9,50,37,0,0,0,0,0
1570545915718.75,-9,49,38,0,0,0,0,0
1570545915750,-15,50,39,0,0,0,0,0
1570545915781.25,-21,50,35,0,0,0,0,0
1570545915812.5,-33,48,31,0,0,0,0,0
1570545915843.75,-52,45,14,0,0,0,0,0
1570545915875,-50,48,39,0,0,0,0,0
1570545915906.25,-34,46,48,0,0,0,0,0
1570545915937.5,-13,47,44,0,0,0,0,0
1570545915968.75,-5,49,38,0,0,0,0,0
1570545916000,1,49,35,0,0,0,0,0
1570545916031.25,-10,53,35,0,0,0,0,0
1570545916062.5,-2,49,42,0,0,0,0,0
1570545916093.75,-3,52,44,0,0,0,0,0
1570545916125,-6,54,36,0,0,0,0,0
1570545916156.25,10,53,34,0,0,0,0,0
1570545916187.5,10,54,30,0,0,0,0,0
1570545916218.75,7,53,35,0,0,0,0,0
1570545916250,-1,50,39,0,0,0,0,0
1570545916281.25,-17,50,34,0,0,0,0,0
1570545916312.5,-17,50,35,0,0,0,0,0
1570545916343.75,-12,48,33,0,0,0,0,0
1570545916375,-15,47,37,0,0,0,0,0
1570545916406.25,-29,49,42,0,0,0,0,0
1570545916437.5,-32,48,38,0,0,0,0,0
1570545916468.75,-37,46,29,0,0,0,0,0
1570545916500,-11,46,33,0,0,0,0,0
1570545916531.25,-14,46,33,0,0,0,0,0
1570545916562.5,-25,45,29,0,0,0,0,0
1570545916593.75,-34,43,35,0,0,0,0,0
1570545916625,-45,41,38,0,0,0,0,0
1570545916656.25,-39,40,32,0,0,0,0,0
1570545916687.5,-38,41,34,0,0,0,0,0
1570545916718.75,-40,41,31,0,0,0,0,0
1570545916750,-33,32,29,0,0,0,0,0
1570545916781.25,-39,29,36,0,0,0,0,0
1570545916812.5,-37,26,69,0,0,0,0,0
1570545916843.75,-42,25,74,0,0,0,0,0
1570545916875,-50,31,54,0,0,0,0,0
1570545916906.25,-51,36,31,0,0,0,0,0
1570545916937.5,-54,38,23,0,0,0,0,0
1570545916968.75,-57,44,10,0,0,0,0,0
1570545917000,-57,48,5,0,0,0,0,0
1570545917031.25,-49,49,5,0,0,0,0,0
1570545917062.5,-43,48,7,0,0,0,0,0
1570545917093.75,-25,47,18,0,0,0,0,0
1570545917125,-17,46,21,0,0,0,0,0
1570545917156.25,-2,48,30,0,0,0,0,0
1570545917187.5,6,47,31,0,0,0,0,0
1570545917218.75,18,48,29,0,0,0,0,0
1570545917250,25,49,31,0,0,0,0,0
1570545917281.25,32,50,30,0,0,0,0,0
1570545917312.5,36,48,27,0,0,0,0,0
1570545917343.75,43,45,32,0,0,0,0,0
1570545917375,45,49,46,0,0,0,0,0
1570545917406.25,30,50,37,0,0,0,0,0
1570545917437.5,14,50,24,0,0,0,0,0
1570545917468.75,13,50,24,0,0,0,0,0
1570545917500,17,51,32,0,0,0,0,0
1570545917531.25,20,50,36,0,0,0,0,0
1570545917562.5,25,50,34,0,0,0,0,0
1570545917593.75,27,50,33,0,0,0,0,0
1570545917625,28,50,33,0,0,0,0,0
1570545917656.25,26,50,33,0,0,0,0,0
1570545917687.5,24,51,32,0,0,0,0,0
1570545917718.75,23,51,30,0,0,0,0,0
1570545917750,23,50,30,0,0,0,0,0
1570545917781.25,24,50,30,0,0,0,0,0
1570545917812.5,25,50,30,0,0,0,0,0
1570545917843.75,27,50,30,0,0,0,0,0
1570545917875,23,50,35,0,0,0,0,0
1570545917906.25,38,51,39,0,0,0,0,0
1570545917937.5,40,50,33,0,0,0,0,0
1570545917968.75,28,48,24,0,0,0,0,0
1570545918000,16,50,27,0,0,0,0,0
1570545918031.25,12,51,30,0,0,0,0,0
1570545918062.5,15,54,32,0,0,0,0,0
1570545918093.75,16,53,29,0,0,0,0,0
1570545918125,24,52,31,0,0,0,0,0
1570545918156.25,27,53,36,0,0,0,0,0
1570545918187.5,23,51,36,0,0,0,0,0
1570545918218.75,23,50,33,0,0,0,0,0
1570545918250,19,51,36,0,0,0,0,0
1570545918281.25,18,51,34,0,0,0,0,0
1570545918312.5,6,53,29,0,0,0,0,0
1570545918343.75,7,54,30,0,0,0,0,0
1570545918375,7,55,29,0,0,0,0,0
1570545918406.25,15,55,30,0,0,0,0,0
1570545918437.5,27,52,32,0,0,0,0,0
1570545918468.75,23,53,34,0,0,0,0,0
1570545918500,11,54,34,0,0,0,0,0
1570545918531.25,0,55,29,0,0,0,0,0
1570545918562.5,1,54,30,0,0,0,0,0
1570545918593.75,6,52,32,0,0,0,0,0
1570545918625,6,52,34,0,0,0,0,0
1570545918656.25,15,52,36,0,0,0,0,0
1570545918687.5,21,51,40,0,0,0,0,0
1570545918718.75,5,52,24,0,0,0,0,0
1570545918750,10,50,23,0,0,0,0,0
1570545918781.25,36,46,30,0,0,0,0,0
1570545918812.5,43,45,33,0,0,0,0,0
