Timestamp,ACC_X,ACC_Y,ACC_Z,Note,AGG,ED,SIB,Condition
1565006321000,-28,54,-19,0,0,0,0,0
1565006321031.25,-68,52,1,0,0,0,0,0
1565006321062.5,-89,44,52,0,0,0,0,0
1565006321093.75,-19,14,66,0,0,0,0,0
1565006321125,-2,-8,64,0,0,0,0,0
1565006321156.25,-58,-28,79,0,0,0,0,0
1565006321187.5,-60,-5,63,0,0,0,0,0
1565006321218.75,-37,12,23,0,0,0,0,0
1565006321250,-10,60,-63,0,0,0,0,0
1565006321281.25,-1,53,-102,0,0,0,0,0
1565006321312.5,-14,24,-77,0,0,0,0,0
1565006321343.75,-75,76,-59,0,0,0,0,0
1565006321375,-59,51,-73,0,0,0,0,0
1565006321406.25,-66,47,-34,0,0,0,0,0
1565006321437.5,-94,41,-12,0,0,0,0,0
1565006321468.75,20,-22,77,0,0,0,0,0
1565006321500,41,-4,93,0,0,0,0,0
1565006321531.25,-67,-36,82,0,0,0,0,0
1565006321562.5,-83,-45,97,0,0,0,0,0
1565006321593.75,-54,-2,21,0,0,0,0,0
1565006321625,-41,22,-20,0,0,0,0,0
1565006321656.25,-35,54,-75,0,0,0,0,0
1565006321687.5,-13,47,-74,0,0,0,0,0
1565006321718.75,-56,39,-60,0,0,0,0,0
1565006321750,-87,64,-63,0,0,0,0,0
1565006321781.25,-61,44,-47,0,0,0,0,0
1565006321812.5,-57,44,-23,0,0,0,0,0
1565006321843.75,-78,23,11,0,0,0,0,0
1565006321875,-26,5,38,0,0,0,0,0
1565006321906.25,10,-11,59,0,0,0,0,0
1565006321937.5,-66,-6,58,0,0,0,0,0
1565006321968.75,-74,-9,60,0,0,0,0,0
1565006322000,-68,22,13,0,0,0,0,0
1565006322031.25,-69,43,-6,0,0,0,0,0
1565006322062.5,-58,46,-18,0,0,0,0,0
1565006322093.75,-46,43,-6,0,0,0,0,0
1565006322125,-36,37,21,0,0,0,0,0
1565006322156.25,-35,38,29,0,0,0,0,0
1565006322187.5,-28,34,36,0,0,0,0,0
1565006322218.75,-24,32,37,0,0,0,0,0
1565006322250,-22,29,37,0,0,0,0,0
1565006322281.25,-22,24,38,0,0,0,0,0
1565006322312.5,-28,15,38,0,0,0,0,0
1565006322343.75,-28,12,41,0,0,0,0,0
1565006322375,-36,0,44,0,0,0,0,0
1565006322406.25,-39,-8,46,0,0,0,0,0
1565006322437.5,-31,-19,58,0,0,0,0,0
1565006322468.75,-17,-24,70,0,0,0,0,0
1565006322500,-25,-28,74,0,0,0,0,0
1565006322531.25,-60,-26,73,0,0,0,0,0
1565006322562.5,-59,-19,61,0,0,0,0,0
1565006322593.75,-51,-3,44,0,0,0,0,0
1565006322625,-46,4,39,0,0,0,0,0
1565006322656.25,-45,20,35,0,0,0,0,0
1565006322687.5,-42,27,32,0,0,0,0,0
1565006322718.75,-54,27,32,0,0,0,0,0
1565006322750,-60,21,37,0,0,0,0,0
1565006322781.25,-62,10,36,0,0,0,0,0
1565006322812.5,-55,7,37,0,0,0,0,0
1565006322843.75,-51,1,35,0,0,0,0,0
1565006322875,-49,-1,35,0,0,0,0,0
1565006322906.25,-50,0,40,0,0,0,0,0
1565006322937.5,-52,-3,41,0,0,0,0,0
1565006322968.75,-47,-5,41,0,0,0,0,0
1565006323000,-48,-3,42,0,0,0,0,0
1565006323031.25,-54,-3,39,0,0,0,0,0
1565006323062.5,-52,0,38,0,0,0,0,0
1565006323093.75,-50,5,39,0,0,0,0,0
1565006323125,-48,7,38,0,0,0,0,0
1565006323156.25,-46,10,37,0,0,0,0,0
1565006323187.5,-42,9,38,1,0,0,0,0
1565006323218.75,-40,7,41,1,0,0,0,0
1565006323250,-38,1,47,1,0,0,0,0
1565006323281.25,-31,-2,46,1,0,0,0,0
1565006323312.5,-42,-5,52,1,0,0,0,0
1565006323343.75,-44,-7,55,1,0,0,0,0
1565006323375,-49,-8,50,1,0,0,0,0
1565006323406.25,-47,-6,46,1,0,0,0,0
1565006323437.5,-51,-1,38,1,0,0,0,0
1565006323468.75,-51,0,36,1,0,0,0,0
1565006323500,-48,2,34,1,0,0,0,0
1565006323531.25,-48,4,33,1,0,0,0,0
1565006323562.5,-52,7,30,1,0,0,0,0
1565006323593.75,-55,8,28,1,0,0,0,0
1565006323625,-60,8,23,1,0,0,0,0
1565006323656.25,-62,7,21,1,0,0,0,0
1565006323687.5,-63,4,18,1,0,0,0,0
1565006323718.75,-61,4,19,1,0,0,0,0
1565006323750,-58,3,22,1,0,0,0,0
1565006323781.25,-59,3,23,1,0,0,0,0
1565006323812.5,-58,5,25,1,0,0,0,0
1565006323843.75,-60,7,22,1,0,0,0,0
1565006323875,-68,8,18,1,0,0,0,0
1565006323906.25,-73,9,13,1,0,0,0,0
1565006323937.5,-72,9,14,1,0,0,0,0
1565006323968.75,-51,4,9,1,0,0,0,0
1565006324000,-39,-2,10,1,0,0,0,0
1565006324031.25,-45,6,12,1,0,0,0,0
1565006324062.5,-56,8,14,0,0,0,0,0
1565006324093.75,-53,18,17,0,0,0,0,0
1565006324125,-52,26,22,0,0,0,0,0
1565006324156.25,-62,31,27,0,0,0,0,0
1565006324187.5,-68,32,25,0,0,0,0,0
1565006324218.75,-66,28,16,0,0,0,0,0
1565006324250,-59,23,13,0,0,0,0,0
1565006324281.25,-37,19,2,0,0,0,0,0
1565006324312.5,-25,14,0,0,0,0,0,0
1565006324343.75,-92,-7,-28,0,0,0,0,0
1565006324375,-19,5,12,0,0,0,0,0
1565006324406.25,-50,1,5,0,0,0,0,0
1565006324437.5,-69,-4,2,0,0,0,0,0
1565006324468.75,-60,-7,4,0,0,0,0,0
1565006324500,-61,-21,6,0,0,0,0,0
1565006324531.25,-70,-20,7,0,0,0,0,0
1565006324562.5,-59,-10,16,0,0,0,0,0
1565006324593.75,-61,-3,12,0,0,0,0,0
1565006324625,-62,10,7,0,0,0,0,0
1565006324656.25,-63,16,7,0,0,0,0,0
1565006324687.5,-57,16,8,0,0,0,0,0
1565006324718.75,-56,5,8,0,0,0,0,0
1565006324750,-66,0,3,0,0,0,0,0
1565006324781.25,-62,2,4,0,0,0,0,0
1565006324812.5,-62,3,6,0,0,0,0,0
1565006324843.75,-62,4,5,0,0,0,0,0
1565006324875,-62,2,6,0,0,0,0,0
1565006324906.25,-62,3,7,0,0,0,0,0
1565006324937.5,-62,3,6,0,0,0,0,0
1565006324968.75,-63,2,4,0,0,0,0,0
1565006325000,-62,2,3,0,0,0,0,0
1565006325031.25,-63,3,2,0,0,0,0,0
1565006325062.5,-64,3,4,0,0,0,0,0
1565006325093.75,-63,3,6,0,0,0,0,0
1565006325125,-63,2,5,0,0,0,0,0
1565006325156.25,-63,3,5,0,0,0,0,0
1565006325187.5,-63,3,5,0,0,0,0,0
1565006325218.75,-63,4,4,0,0,0,0,0
1565006325250,-64,3,4,0,0,0,0,0
1565006325281.25,-62,3,7,0,0,0,0,0
1565006325312.5,-62,3,7,0,0,0,0,0
1565006325343.75,-62,3,8,0,0,0,0,0
1565006325375,-62,3,9,0,0,0,0,0
1565006325406.25,-62,3,9,0,0,0,0,0
1565006325437.5,-62,3,9,0,0,0,0,0
1565006325468.75,-62,3,10,0,0,0,0,0
1565006325500,-62,3,10,0,0,0,0,0
1565006325531.25,-62,3,11,0,0,0,0,0
1565006325562.5,-62,3,11,0,0,0,0,0
1565006325593.75,-62,3,11,0,0,0,0,0
1565006325625,-62,3,11,0,0,0,0,0
1565006325656.25,-61,3,12,0,0,0,0,0
1565006325687.5,-61,3,12,0,0,0,0,0
1565006325718.75,-62,3,12,0,0,0,0,0
1565006325750,-62,3,13,0,0,0,0,0
1565006325781.25,-62,3,13,0,0,0,0,0
1565006325812.5,-61,2,14,0,0,0,0,0
1565006325843.75,-61,3,15,0,0,0,0,0
1565006325875,-60,3,15,0,0,0,0,0
1565006325906.25,-60,3,16,0,0,0,0,0
1565006325937.5,-60,3,16,0,0,0,0,0
1565006325968.75,-60,3,16,0,0,0,0,0
1565006326000,-61,3,15,0,0,0,0,0
1565006326031.25,-61,3,15,0,0,0,0,0
1565006326062.5,-61,3,15,0,0,0,0,0
1565006326093.75,-61,3,16,0,0,0,0,0
1565006326125,-61,2,16,0,0,0,0,0
1565006326156.25,-61,3,16,0,0,0,0,0
1565006326187.5,-61,3,16,0,0,0,0,0
1565006326218.75,-60,3,16,0,0,0,0,0
1565006326250,-61,3,16,0,0,0,0,0
1565006326281.25,-61,3,17,0,0,0,0,0
1565006326312.5,-60,3,17,0,0,0,0,0
1565006326343.75,-60,3,17,0,0,0,0,0
1565006326375,-61,3,17,0,0,0,0,0
1565006326406.25,-61,3,17,0,0,0,0,0
1565006326437.5,-61,4,17,0,0,0,0,0
1565006326468.75,-60,3,17,0,0,0,0,0
1565006326500,-60,4,17,0,0,0,0,0
1565006326531.25,-60,3,18,0,0,0,0,0
1565006326562.5,-60,4,18,0,0,0,0,0
1565006326593.75,-60,4,18,0,0,0,0,0
1565006326625,-59,4,18,0,0,0,0,0
1565006326656.25,-60,3,18,0,0,0,0,0
1565006326687.5,-60,3,20,0,0,0,0,0
1565006326718.75,-60,2,20,0,0,0,0,0
1565006326750,-59,3,20,0,0,0,0,0
1565006326781.25,-59,3,20,0,0,0,0,0
1565006326812.5,-59,3,20,0,0,0,0,0
1565006326843.75,-59,4,20,0,0,0,0,0
1565006326875,-59,4,20,0,0,0,0,0
1565006326906.25,-59,4,20,0,0,0,0,0
1565006326937.5,-59,3,21,0,0,0,0,0
1565006326968.75,-60,3,21,0,0,0,0,0
1565006327000,-59,3,21,0,0,0,0,0
1565006327031.25,-58,3,21,0,0,0,0,0
1565006327062.5,-59,4,22,0,0,0,0,0
1565006327093.75,-59,4,22,0,0,0,0,0
1565006327125,-59,3,21,0,0,0,0,0
1565006327156.25,-59,3,21,0,0,0,0,0
1565006327187.5,-59,3,22,0,0,0,0,0
1565006327218.75,-59,3,22,0,0,0,0,0
1565006327250,-59,3,22,0,0,0,0,0
1565006327281.25,-59,3,22,0,0,0,0,0
1565006327312.5,-58,3,22,0,0,0,0,0
1565006327343.75,-58,3,22,0,0,0,0,0
1565006327375,-59,3,23,0,0,0,0,0
1565006327406.25,-59,3,23,0,0,0,0,0
1565006327437.5,-58,3,23,0,0,0,0,0
1565006327468.75,-58,3,23,0,0,0,0,0
1565006327500,-57,4,24,0,0,0,0,0
1565006327531.25,-57,4,24,0,0,0,0,0
1565006327562.5,-57,4,24,0,0,0,0,0
1565006327593.75,-57,4,24,0,0,0,0,0
1565006327625,-57,3,25,0,0,0,0,0
1565006327656.25,-58,3,24,0,0,0,0,0
1565006327687.5,-57,3,25,0,0,0,0,0
1565006327718.75,-57,3,25,0,0,0,0,0
1565006327750,-57,3,25,0,0,0,0,0
1565006327781.25,-57,4,25,0,0,0,0,0
1565006327812.5,-57,3,25,0,0,0,0,0
1565006327843.75,-57,3,25,0,0,0,0,0
1565006327875,-57,3,25,0,0,0,0,0
1565006327906.25,-57,3,26,0,0,0,0,0
1565006327937.5,-57,3,26,0,0,0,0,0
1565006327968.75,-57,3,26,0,0,0,0,0
1565006328000,-57,3,26,0,0,0,0,0
1565006328031.25,-57,3,26,0,0,0,0,0
1565006328062.5,-56,3,26,0,0,0,0,0
1565006328093.75,-56,4,26,0,0,0,0,0
1565006328125,-56,4,26,0,0,0,0,0
1565006328156.25,-56,3,27,0,0,0,0,0
1565006328187.5,-56,3,27,0,0,0,0,0
1565006328218.75,-57,3,27,0,0,0,0,0
1565006328250,-56,3,26,0,0,0,0,0
1565006328281.25,-56,4,26,0,0,0,0,0
1565006328312.5,-57,3,26,0,0,0,0,0
1565006328343.75,-57,3,26,0,0,0,0,0
1565006328375,-58,3,26,0,0,0,0,0
1565006328406.25,-57,3,26,0,0,0,0,0
1565006328437.5,-57,3,26,0,0,0,0,0
1565006328468.75,-57,3,26,0,0,0,0,0
1565006328500,-56,3,26,0,0,0,0,0
1565006328531.25,-56,4,26,0,0,0,0,0
1565006328562.5,-56,3,26,0,0,0,0,0
1565006328593.75,-57,3,26,0,0,0,0,0
1565006328625,-57,3,26,0,0,0,0,0
1565006328656.25,-58,3,26,0,0,0,0,0
1565006328687.5,-57,3,25,0,0,0,0,0
1565006328718.75,-57,3,25,0,0,0,0,0
1565006328750,-56,3,25,0,0,0,0,0
1565006328781.25,-54,4,25,0,0,0,0,0
1565006328812.5,-53,6,22,0,0,0,0,0
1565006328843.75,-50,9,19,0,0,0,0,0
1565006328875,-58,12,13,0,0,0,0,0
1565006328906.25,-81,5,18,0,0,0,0,0
1565006328937.5,-68,11,19,0,0,0,0,0
1565006328968.75,-63,6,20,0,0,0,0,0
1565006329000,-56,0,22,0,0,0,0,0
1565006329031.25,-59,1,25,0,0,0,0,0
1565006329062.5,-59,4,31,0,0,0,0,0
1565006329093.75,-52,-4,31,0,0,0,0,0
1565006329125,-46,-9,36,0,0,0,0,0
1565006329156.25,-44,-18,40,0,0,0,0,0
1565006329187.5,-49,-21,36,0,0,0,0,0
1565006329218.75,-59,-20,21,0,0,0,0,0
1565006329250,-65,-14,18,0,0,0,0,0
1565006329281.25,-67,-1,15,0,0,0,0,0
1565006329312.5,-65,5,16,0,0,0,0,0
1565006329343.75,-56,9,24,0,0,0,0,0
1565006329375,-53,11,27,0,0,0,0,0
1565006329406.25,-51,8,29,0,0,0,0,0
1565006329437.5,-52,5,30,0,0,0,0,0
1565006329468.75,-55,-7,38,0,0,0,0,0
1565006329500,-52,-5,39,0,0,0,0,0
1565006329531.25,-47,4,35,0,0,0,0,0
1565006329562.5,-54,3,30,0,0,0,0,0
1565006329593.75,-56,3,25,0,0,0,0,0
1565006329625,-61,1,23,0,0,0,0,0
1565006329656.25,-63,1,24,0,0,0,0,0
1565006329687.5,-57,0,28,0,0,0,0,0
1565006329718.75,-54,0,32,0,0,0,0,0
1565006329750,-49,-1,37,0,0,0,0,0
1565006329781.25,-48,-1,38,0,0,0,0,0
1565006329812.5,-47,0,38,0,0,0,0,0
1565006329843.75,-48,0,38,0,0,0,0,0
1565006329875,-52,0,35,0,0,0,0,0
1565006329906.25,-53,0,34,0,0,0,0,0
1565006329937.5,-54,-1,33,0,0,0,0,0
1565006329968.75,-53,0,33,0,0,0,0,0
1565006330000,-53,0,35,0,0,0,0,0
1565006330031.25,-52,-1,36,0,0,0,0,0
1565006330062.5,-51,0,36,0,0,0,0,0
1565006330093.75,-51,0,36,0,0,0,0,0
1565006330125,-50,0,35,0,0,0,0,0
1565006330156.25,-49,0,33,0,0,0,0,0
1565006330187.5,-56,-3,36,0,0,0,0,0
1565006330218.75,-52,-2,39,0,0,0,0,0
1565006330250,-48,0,37,0,0,0,0,0
1565006330281.25,-48,-1,42,0,0,0,0,0
1565006330312.5,-48,4,39,0,0,0,0,0
1565006330343.75,-46,-3,39,0,0,0,0,0
1565006330375,-49,7,36,0,0,0,0,0
1565006330406.25,-50,1,34,0,0,0,0,0
1565006330437.5,-52,-1,34,0,0,0,0,0
1565006330468.75,-51,-5,40,0,0,0,0,0
1565006330500,-48,-6,41,0,0,0,0,0
1565006330531.25,-45,-9,42,0,0,0,0,0
1565006330562.5,-46,-7,42,0,0,0,0,0
1565006330593.75,-46,-10,40,0,0,0,0,0
1565006330625,-49,-6,39,0,0,0,0,0
1565006330656.25,-49,-7,36,0,0,0,0,0
1565006330687.5,-54,-5,35,0,0,0,0,0
1565006330718.75,-50,-14,35,0,0,0,0,0
1565006330750,-48,-15,36,0,0,0,0,0
1565006330781.25,-46,-16,37,0,0,0,0,0
1565006330812.5,-46,-16,33,0,0,0,0,0
1565006330843.75,-52,-17,36,0,0,0,0,0
1565006330875,-48,-19,35,0,0,0,0,0
1565006330906.25,-50,-19,32,0,0,0,0,0
1565006330937.5,-57,-3,30,0,0,0,0,0
1565006330968.75,-56,1,29,0,0,0,0,0
1565006331000,-55,1,28,0,0,0,0,0
1565006331031.25,-54,3,32,0,0,0,0,0
1565006331062.5,-48,-4,37,0,0,0,0,0
1565006331093.75,-49,-6,38,0,0,0,0,0
1565006331125,-51,-5,35,0,0,0,0,0
1565006331156.25,-53,-5,32,0,0,0,0,0
1565006331187.5,-55,-1,31,0,0,0,0,0
1565006331218.75,-55,-3,30,0,0,0,0,0
1565006331250,-55,-5,32,0,0,0,0,0
1565006331281.25,-54,-3,32,0,0,0,0,0
1565006331312.5,-54,-4,33,0,0,0,0,0
1565006331343.75,-57,-4,32,0,0,0,0,0
1565006331375,-51,-3,31,0,0,0,0,0
1565006331406.25,-53,-3,31,0,0,0,0,0
1565006331437.5,-53,-3,33,0,0,0,0,0
1565006331468.75,-53,-2,33,0,0,0,0,0
1565006331500,-52,-3,33,0,0,0,0,0
1565006331531.25,-53,-4,33,0,0,0,0,0
1565006331562.5,-52,-3,33,0,0,0,0,0
1565006331593.75,-53,-3,33,0,0,0,0,0
1565006331625,-53,-3,33,0,0,0,0,0
1565006331656.25,-53,-3,32,0,0,0,0,0
1565006331687.5,-54,-2,32,0,0,0,0,0
1565006331718.75,-54,-4,30,0,0,0,0,0
1565006331750,-54,-4,31,0,0,0,0,0
1565006331781.25,-52,-4,34,0,0,0,0,0
1565006331812.5,-53,-6,34,0,0,0,0,0
1565006331843.75,-47,-6,35,0,0,0,0,0
1565006331875,-51,-2,33,0,0,0,0,0
1565006331906.25,-44,-6,37,0,0,0,0,0
1565006331937.5,-45,-4,37,0,0,0,0,0
1565006331968.75,-49,-8,30,0,0,0,0,0
1565006332000,-75,1,22,0,0,0,0,0
1565006332031.25,-61,1,8,0,0,0,0,0
1565006332062.5,-70,5,-6,0,0,0,0,0
1565006332093.75,-66,6,-6,0,0,0,0,0
1565006332125,-59,7,-4,0,0,0,0,0
1565006332156.25,-60,3,-5,0,0,0,0,0
1565006332187.5,-68,4,-8,0,0,0,0,0
1565006332218.75,-61,3,-5,0,0,0,0,0
1565006332250,-64,1,4,0,0,0,0,0
1565006332281.25,-62,0,7,0,0,0,0,0
1565006332312.5,-61,0,9,0,0,0,0,0
1565006332343.75,-66,-2,12,0,0,0,0,0
1565006332375,-63,-2,3,0,0,0,0,0
1565006332406.25,-65,-3,2,0,0,0,0,0
1565006332437.5,-67,-3,0,0,0,0,0,0
1565006332468.75,-63,-2,-5,0,0,0,0,0
1565006332500,-64,-1,-13,0,0,0,0,0
1565006332531.25,-67,0,-14,0,0,0,0,0
1565006332562.5,-59,1,-16,0,0,0,0,0
1565006332593.75,-60,2,-17,0,0,0,0,0
1565006332625,-66,2,-19,0,0,0,0,0
1565006332656.25,-65,3,-17,0,0,0,0,0
1565006332687.5,-61,3,-15,0,0,0,0,0
1565006332718.75,-65,3,-12,0,0,0,0,0
1565006332750,-64,4,-11,0,0,0,0,0
1565006332781.25,-62,5,-4,0,0,0,0,0
1565006332812.5,-63,3,-3,0,0,0,0,0
1565006332843.75,-62,2,1,0,0,0,0,0
1565006332875,-60,3,5,0,0,0,0,0
1565006332906.25,-64,2,0,0,0,0,0,0
1565006332937.5,-66,2,-4,0,0,0,0,0
1565006332968.75,-63,4,-1,0,0,0,0,0
1565006333000,-64,5,0,0,0,0,0,0
1565006333031.25,-67,5,1,0,0,0,0,0
1565006333062.5,-67,5,-1,0,0,0,0,0
1565006333093.75,-65,6,-4,0,0,0,0,0
1565006333125,-64,4,-1,0,0,0,0,0
1565006333156.25,-61,3,12,0,0,0,0,0
1565006333187.5,-63,2,13,0,0,0,0,0
1565006333218.75,-57,0,16,0,0,0,0,0
1565006333250,-55,-1,20,0,0,0,0,0
1565006333281.25,-54,-4,27,0,0,0,0,0
1565006333312.5,-53,-3,29,0,0,0,0,0
1565006333343.75,-53,-1,30,0,0,0,0,0
1565006333375,-55,-1,29,0,0,0,0,0
1565006333406.25,-55,-1,28,0,0,0,0,0
1565006333437.5,-54,-1,29,0,0,0,0,0
1565006333468.75,-54,-2,29,0,0,0,0,0
1565006333500,-54,-1,30,0,0,0,0,0
1565006333531.25,-54,-1,30,0,0,0,0,0
1565006333562.5,-55,-1,28,0,0,0,0,0
1565006333593.75,-56,-1,29,0,0,0,0,0
1565006333625,-57,-1,26,0,0,0,0,0
1565006333656.25,-56,-1,27,0,0,0,0,0
1565006333687.5,-55,-2,28,0,0,0,0,0
1565006333718.75,-56,-1,27,0,0,0,0,0
1565006333750,-56,-2,28,0,0,0,0,0
1565006333781.25,-55,-1,27,0,0,0,0,0
1565006333812.5,-56,1,27,0,0,0,0,0
1565006333843.75,-55,1,25,0,0,0,0,0
1565006333875,-58,1,24,0,0,0,0,0
1565006333906.25,-57,0,25,0,0,0,0,0
1565006333937.5,-57,2,25,0,0,0,0,0
1565006333968.75,-56,14,24,0,0,0,0,0
1565006334000,-59,16,20,0,0,0,0,0
1565006334031.25,-67,8,17,0,0,0,0,0
1565006334062.5,-66,23,14,0,0,0,0,0
1565006334093.75,-61,18,17,0,0,0,0,0
1565006334125,-61,9,17,0,0,0,0,0
1565006334156.25,-60,-7,17,0,0,0,0,0
1565006334187.5,-59,-12,19,0,0,0,0,0
1565006334218.75,-60,-21,20,0,0,0,0,0
1565006334250,-58,-24,22,0,0,0,0,0
1565006334281.25,-57,-29,23,0,0,0,0,0
1565006334312.5,-57,-32,25,0,0,0,0,0
1565006334343.75,-57,-15,25,0,0,0,0,0
1565006334375,-59,-11,21,0,0,0,0,0
1565006334406.25,-61,0,16,0,0,0,0,0
1565006334437.5,-63,5,14,0,0,0,0,0
1565006334468.75,-63,17,14,0,0,0,0,0
1565006334500,-61,16,18,0,0,0,0,0
1565006334531.25,-58,2,24,0,0,0,0,0
1565006334562.5,-58,-2,25,0,0,0,0,0
1565006334593.75,-61,-3,23,0,0,0,0,0
1565006334625,-61,0,25,0,0,0,0,0
1565006334656.25,-61,3,24,0,0,0,0,0
1565006334687.5,-53,7,27,0,0,0,0,0
1565006334718.75,-56,8,27,0,0,0,0,0
1565006334750,-55,7,29,0,0,0,0,0
1565006334781.25,-52,9,33,0,0,0,0,0
1565006334812.5,-55,8,30,0,0,0,0,0
1565006334843.75,-50,9,36,0,0,0,0,0
1565006334875,-48,12,39,0,0,0,0,0
1565006334906.25,-46,14,35,0,0,0,0,0
1565006334937.5,-47,15,37,0,0,0,0,0
1565006334968.75,-47,16,38,0,0,0,0,0
1565006335000,-45,16,35,0,0,0,0,0
1565006335031.25,-48,16,35,0,0,0,0,0
1565006335062.5,-49,16,37,0,0,0,0,0
1565006335093.75,-47,15,38,0,0,0,0,0
1565006335125,-49,16,36,0,0,0,0,0
1565006335156.25,-51,16,34,0,0,0,0,0
1565006335187.5,-50,15,34,0,0,0,0,0
1565006335218.75,-49,16,34,0,0,0,0,0
1565006335250,-52,16,33,0,0,0,0,0
1565006335281.25,-52,16,33,0,0,0,0,0
1565006335312.5,-50,16,33,0,0,0,0,0
1565006335343.75,-49,17,32,0,0,0,0,0
1565006335375,-51,18,33,0,0,0,0,0
1565006335406.25,-49,17,34,0,0,0,0,0
1565006335437.5,-49,16,33,0,0,0,0,0
1565006335468.75,-51,16,33,0,0,0,0,0
1565006335500,-52,17,33,0,0,0,0,0
1565006335531.25,-52,17,31,0,0,0,0,0
1565006335562.5,-51,17,30,0,0,0,0,0
1565006335593.75,-52,17,30,0,0,0,0,0
1565006335625,-53,17,31,0,0,0,0,0
1565006335656.25,-52,17,31,0,0,0,0,0
1565006335687.5,-51,16,31,0,0,0,0,0
1565006335718.75,-51,17,31,0,0,0,0,0
1565006335750,-52,17,31,0,0,0,0,0
1565006335781.25,-53,16,31,0,0,0,0,0
1565006335812.5,-53,16,30,0,0,0,0,0
1565006335843.75,-52,16,29,0,0,0,0,0
1565006335875,-53,16,29,0,0,0,0,0
1565006335906.25,-54,16,29,0,0,0,0,0
1565006335937.5,-53,16,29,0,0,0,0,0
1565006335968.75,-53,16,29,0,0,0,0,0
1565006336000,-53,16,30,0,0,0,0,0
1565006336031.25,-52,16,29,0,0,0,0,0
1565006336062.5,-54,16,30,0,0,0,0,0
1565006336093.75,-54,16,30,0,0,0,0,0
1565006336125,-53,16,29,0,0,0,0,0
1565006336156.25,-53,16,29,0,0,0,0,0
1565006336187.5,-54,16,30,0,0,0,0,0
1565006336218.75,-54,16,30,0,0,0,0,0
1565006336250,-54,16,30,0,0,0,0,0
1565006336281.25,-54,16,30,0,0,0,0,0
1565006336312.5,-57,16,32,0,0,0,0,0
1565006336343.75,-56,17,34,0,0,0,0,0
1565006336375,-48,17,33,0,0,0,0,0
1565006336406.25,-45,17,36,0,0,0,0,0
1565006336437.5,-41,19,41,0,0,0,0,0
1565006336468.75,-39,19,43,0,0,0,0,0
1565006336500,-38,18,46,0,0,0,0,0
1565006336531.25,-37,18,46,0,0,0,0,0
1565006336562.5,-36,18,45,0,0,0,0,0
1565006336593.75,-38,19,45,0,0,0,0,0
1565006336625,-39,19,44,0,0,0,0,0
1565006336656.25,-42,19,44,0,0,0,0,0
1565006336687.5,-42,19,44,0,0,0,0,0
1565006336718.75,-40,19,43,0,0,0,0,0
1565006336750,-40,20,43,0,0,0,0,0
1565006336781.25,-37,19,45,0,0,0,0,0
1565006336812.5,-37,19,47,0,0,0,0,0
1565006336843.75,-36,19,47,0,0,0,0,0
1565006336875,-38,20,46,0,0,0,0,0
1565006336906.25,-33,16,43,0,0,0,0,0
1565006336937.5,-44,19,49,0,0,0,0,0
1565006336968.75,-45,16,47,0,0,0,0,0
1565006337000,-40,18,42,0,0,0,0,0
1565006337031.25,-36,19,42,0,0,0,0,0
1565006337062.5,-36,20,43,0,0,0,0,0
1565006337093.75,-34,19,48,0,0,0,0,0
1565006337125,-29,18,48,0,0,0,0,0
1565006337156.25,-19,18,50,0,0,0,0,0
1565006337187.5,-22,18,54,0,0,0,0,0
1565006337218.75,-20,16,35,0,0,0,0,0
1565006337250,-77,2,20,0,0,0,0,0
1565006337281.25,-82,3,48,0,0,0,0,0
1565006337312.5,-73,5,24,0,0,0,0,0
1565006337343.75,-61,5,16,0,0,0,0,0
1565006337375,-54,10,22,0,0,0,0,0
1565006337406.25,-48,11,24,0,0,0,0,0
1565006337437.5,-51,15,23,0,0,0,0,0
1565006337468.75,-53,17,24,0,0,0,0,0
1565006337500,-61,11,29,0,0,0,0,0
1565006337531.25,-63,7,30,0,0,0,0,0
1565006337562.5,-58,5,34,0,0,0,0,0
1565006337593.75,-57,7,32,0,0,0,0,0
1565006337625,-47,6,43,0,0,0,0,0
1565006337656.25,-45,8,44,0,0,0,0,0
1565006337687.5,-43,9,39,0,0,0,0,0
1565006337718.75,-33,8,45,0,0,0,0,0
1565006337750,-39,6,52,0,0,0,0,0
1565006337781.25,-42,5,53,0,0,0,0,0
1565006337812.5,-39,6,50,0,0,0,0,0
1565006337843.75,-40,9,52,0,0,0,0,0
1565006337875,-40,14,52,0,0,0,0,0
1565006337906.25,-30,15,43,0,0,0,0,0
1565006337937.5,-19,16,40,0,0,0,0,0
1565006337968.75,-17,15,52,0,0,0,0,0
1565006338000,-22,13,57,0,0,0,0,0
1565006338031.25,-26,10,58,0,0,0,0,0
1565006338062.5,-32,8,52,0,0,0,0,0
1565006338093.75,-33,1,32,0,0,0,0,0
1565006338125,-40,-14,19,0,0,0,0,0
1565006338156.25,-67,11,55,0,0,0,0,0
1565006338187.5,-43,-3,59,0,0,0,0,0
1565006338218.75,-52,-1,34,0,0,0,0,0
1565006338250,-65,1,35,0,0,0,0,0
1565006338281.25,-36,2,58,0,0,0,0,0
1565006338312.5,-32,4,53,0,0,0,0,0
1565006338343.75,-28,10,49,0,0,0,0,0
1565006338375,-25,13,46,0,0,0,0,0
1565006338406.25,-20,12,40,0,0,0,0,0
1565006338437.5,-39,0,32,0,0,0,0,0
1565006338468.75,-55,-13,78,0,0,0,0,0
1565006338500,-14,-8,40,0,0,0,0,0
1565006338531.25,-53,-2,31,0,0,0,0,0
1565006338562.5,-69,-2,43,0,0,0,0,0
1565006338593.75,-43,1,48,0,0,0,0,0
1565006338625,-29,12,43,0,0,0,0,0
1565006338656.25,-34,14,44,0,0,0,0,0
1565006338687.5,-28,15,37,0,0,0,0,0
1565006338718.75,-19,16,31,0,0,0,0,0
1565006338750,-82,-26,34,0,0,0,0,0
1565006338781.25,-74,-24,115,0,0,0,0,0
1565006338812.5,-23,-7,40,0,0,0,0,0
1565006338843.75,-24,-3,27,0,0,0,0,0
1565006338875,-38,2,30,0,0,0,0,0
1565006338906.25,-44,1,42,0,0,0,0,0
1565006338937.5,-56,-6,51,0,0,0,0,0
1565006338968.75,-52,-6,43,0,0,0,0,0
1565006339000,-44,-3,37,0,0,0,0,0
1565006339031.25,-46,-4,39,0,0,0,0,0
1565006339062.5,-48,-6,43,0,0,0,0,0
1565006339093.75,-47,-5,41,0,0,0,0,0
1565006339125,-47,-3,39,0,0,0,0,0
1565006339156.25,-48,-3,40,0,0,0,0,0
1565006339187.5,-47,-3,40,0,0,0,0,0
1565006339218.75,-48,-4,40,0,0,0,0,0
1565006339250,-48,-4,39,0,0,0,0,0
1565006339281.25,-49,-4,39,0,0,0,0,0
1565006339312.5,-49,-3,39,0,0,0,0,0
1565006339343.75,-48,-4,39,0,0,0,0,0
1565006339375,-48,-4,39,0,0,0,0,0
1565006339406.25,-48,-5,39,0,0,0,0,0
1565006339437.5,-49,-4,39,0,0,0,0,0
1565006339468.75,-50,-4,38,0,0,0,0,0
1565006339500,-49,-3,38,0,0,0,0,0
1565006339531.25,-48,-4,39,0,0,0,0,0
1565006339562.5,-48,-3,39,0,0,0,0,0
1565006339593.75,-48,-3,39,0,0,0,0,0
1565006339625,-49,-3,39,0,0,0,0,0
1565006339656.25,-49,-3,39,0,0,0,0,0
1565006339687.5,-49,-4,39,0,0,0,0,0
1565006339718.75,-48,-3,39,0,0,0,0,0
1565006339750,-49,-3,39,0,0,0,0,0
1565006339781.25,-49,-3,39,0,0,0,0,0
1565006339812.5,-49,-4,39,0,0,0,0,0
1565006339843.75,-49,-3,39,0,0,0,0,0
1565006339875,-48,-3,39,0,0,0,0,0
1565006339906.25,-49,-3,39,0,0,0,0,0
1565006339937.5,-48,-3,39,0,0,0,0,0
1565006339968.75,-48,-3,39,0,0,0,0,0
1565006340000,-49,-3,39,0,0,0,0,0
1565006340031.25,-49,-3,39,0,0,0,0,0
1565006340062.5,-49,-3,39,0,0,0,0,0
1565006340093.75,-49,-3,39,0,0,0,0,0
1565006340125,-49,-3,38,0,0,0,0,0
1565006340156.25,-49,-3,39,0,0,0,0,0
1565006340187.5,-49,-3,39,0,0,0,0,0
1565006340218.75,-49,-3,39,0,0,0,0,0
1565006340250,-49,-3,39,0,0,0,0,0
1565006340281.25,-49,-3,39,0,0,0,0,0
1565006340312.5,-49,-3,39,0,0,0,0,0
1565006340343.75,-49,-3,38,0,0,0,0,0
1565006340375,-49,-3,38,0,0,0,0,0
1565006340406.25,-49,-3,39,0,0,0,0,0
1565006340437.5,-49,-4,39,0,0,0,0,0
1565006340468.75,-49,-3,39,0,0,0,0,0
1565006340500,-49,-3,38,0,0,0,0,0
1565006340531.25,-49,-3,38,0,0,0,0,0
1565006340562.5,-49,-3,39,0,0,0,0,0
1565006340593.75,-49,-3,38,0,0,0,0,0
1565006340625,-49,-3,38,0,0,0,0,0
1565006340656.25,-49,-3,38,0,0,0,0,0
1565006340687.5,-49,-3,38,0,0,0,0,0
1565006340718.75,-49,-3,38,0,0,0,0,0
1565006340750,-49,-3,38,0,0,0,0,0
1565006340781.25,-49,-3,38,0,0,0,0,0
1565006340812.5,-49,-3,38,0,0,0,0,0
1565006340843.75,-49,-3,38,0,0,0,0,0
1565006340875,-49,-3,38,0,0,0,0,0
1565006340906.25,-49,-3,38,0,0,0,0,0
1565006340937.5,-49,-3,38,0,0,0,0,0
1565006340968.75,-49,-3,38,0,0,0,0,0
1565006341000,-49,-3,38,0,0,0,0,0
1565006341031.25,-49,-3,38,0,0,0,0,0
1565006341062.5,-49,-3,38,0,0,0,0,0
1565006341093.75,-49,-3,38,0,0,0,0,0
1565006341125,-49,-3,38,0,0,0,0,0
1565006341156.25,-49,-3,38,0,0,0,0,0
1565006341187.5,-49,-3,38,0,0,0,0,0
1565006341218.75,-49,-3,38,0,0,0,0,0
1565006341250,-49,-3,38,0,0,0,0,0
1565006341281.25,-49,-3,38,0,0,0,0,0
1565006341312.5,-49,-3,38,0,0,0,0,0
1565006341343.75,-49,-3,38,0,0,0,0,0
1565006341375,-49,-3,38,0,0,0,0,0
1565006341406.25,-49,-3,38,0,0,0,0,0
1565006341437.5,-49,-3,38,0,0,0,0,0
1565006341468.75,-49,-3,38,0,0,0,0,0
1565006341500,-49,-3,38,0,0,0,0,0
1565006341531.25,-49,-3,38,0,0,0,0,0
1565006341562.5,-49,-3,39,0,0,0,0,0
1565006341593.75,-48,-3,40,0,0,0,0,0
1565006341625,-49,-4,37,0,0,0,0,0
1565006341656.25,-49,-2,37,0,0,0,0,0
1565006341687.5,-50,-4,36,0,0,0,0,0
1565006341718.75,-50,-4,37,0,0,0,0,0
1565006341750,-51,-4,38,0,0,0,0,0
1565006341781.25,-49,-4,36,0,0,0,0,0
1565006341812.5,-49,-3,37,0,0,0,0,0
1565006341843.75,-47,-3,40,0,0,0,0,0
1565006341875,-46,-4,42,0,0,0,0,0
1565006341906.25,-49,-5,40,0,0,0,0,0
1565006341937.5,-51,-4,37,0,0,0,0,0
1565006341968.75,-49,-4,37,0,0,0,0,0
1565006342000,-49,-3,37,0,0,0,0,0
1565006342031.25,-48,-4,37,0,0,0,0,0
1565006342062.5,-48,-5,38,0,0,0,0,0
1565006342093.75,-51,-3,36,0,0,0,0,0
1565006342125,-51,-2,37,0,0,0,0,0
1565006342156.25,-49,-4,40,0,0,0,0,0
1565006342187.5,-48,-4,40,0,0,0,0,0
1565006342218.75,-49,-3,37,0,0,0,0,0
1565006342250,-50,-4,37,0,0,0,0,0
1565006342281.25,-49,-4,37,0,0,0,0,0
1565006342312.5,-49,-4,37,0,0,0,0,0
1565006342343.75,-49,-4,38,0,0,0,0,0
1565006342375,-50,-4,38,0,0,0,0,0
1565006342406.25,-51,-3,37,0,0,0,0,0
1565006342437.5,-50,-4,39,0,0,0,0,0
1565006342468.75,-48,-4,39,0,0,0,0,0
1565006342500,-49,-3,39,0,0,0,0,0
1565006342531.25,-52,-4,38,0,0,0,0,0
1565006342562.5,-51,-3,36,0,0,0,0,0
1565006342593.75,-51,-4,36,0,0,0,0,0
1565006342625,-49,-4,39,0,0,0,0,0
1565006342656.25,-48,-3,38,0,0,0,0,0
1565006342687.5,-48,-3,39,0,0,0,0,0
1565006342718.75,-48,-4,39,0,0,0,0,0
1565006342750,-48,-3,39,0,0,0,0,0
1565006342781.25,-48,-4,39,0,0,0,0,0
1565006342812.5,-49,-4,39,0,0,0,0,0
1565006342843.75,-48,-3,38,0,0,0,0,0
1565006342875,-48,-3,38,0,0,0,0,0
1565006342906.25,-49,-3,39,0,0,0,0,0
1565006342937.5,-49,-3,40,0,0,0,0,0
1565006342968.75,-47,-4,40,0,0,0,0,0
1565006343000,-47,-4,40,0,0,0,0,0
1565006343031.25,-49,-4,39,0,0,0,0,0
1565006343062.5,-49,-4,39,0,0,0,0,0
1565006343093.75,-47,-4,39,0,0,0,0,0
1565006343125,-49,-3,39,0,0,0,0,0
1565006343156.25,-49,-4,39,0,0,0,0,0
1565006343187.5,-47,-4,39,0,0,0,0,0
1565006343218.75,-48,-3,38,0,0,0,0,0
1565006343250,-49,-3,39,0,0,0,0,0
1565006343281.25,-48,-4,39,0,0,0,0,0
1565006343312.5,-47,-4,39,0,0,0,0,0
1565006343343.75,-49,-4,39,0,0,0,0,0
1565006343375,-48,-4,40,0,0,0,0,0
1565006343406.25,-48,-3,38,0,0,0,0,0
1565006343437.5,-48,-3,39,0,0,0,0,0
1565006343468.75,-49,-4,39,0,0,0,0,0
1565006343500,-47,-4,40,0,0,0,0,0
1565006343531.25,-46,-4,41,0,0,0,0,0
1565006343562.5,-48,-3,40,0,0,0,0,0
1565006343593.75,-49,-3,39,0,0,0,0,0
1565006343625,-49,-3,39,0,0,0,0,0
1565006343656.25,-48,-3,39,0,0,0,0,0
1565006343687.5,-48,-3,40,0,0,0,0,0
1565006343718.75,-48,-3,40,0,0,0,0,0
1565006343750,-49,-3,39,0,0,0,0,0
1565006343781.25,-49,-4,39,0,0,0,0,0
1565006343812.5,-48,-3,39,0,0,0,0,0
1565006343843.75,-48,-3,39,0,0,0,0,0
1565006343875,-49,-3,39,0,0,0,0,0
1565006343906.25,-49,-3,39,0,0,0,0,0
1565006343937.5,-49,-3,38,0,0,0,0,0
1565006343968.75,-49,-3,38,0,0,0,0,0
1565006344000,-49,-3,39,0,0,0,0,0
1565006344031.25,-48,-3,39,0,0,0,0,0
1565006344062.5,-48,-3,39,0,0,0,0,0
1565006344093.75,-48,-2,39,0,0,0,0,0
1565006344125,-49,-3,39,0,0,0,0,0
1565006344156.25,-50,-3,38,0,0,0,0,0
1565006344187.5,-49,-3,37,0,0,0,0,0
1565006344218.75,-49,-3,39,0,0,0,0,0
1565006344250,-48,-3,39,0,0,0,0,0
1565006344281.25,-49,-3,38,0,0,0,0,0
1565006344312.5,-49,-3,38,0,0,0,0,0
1565006344343.75,-49,-3,38,0,0,0,0,0
1565006344375,-49,-3,38,0,0,0,0,0
1565006344406.25,-49,-3,38,0,0,0,0,0
1565006344437.5,-49,-3,38,0,0,0,0,0
1565006344468.75,-49,-3,38,0,0,0,0,0
1565006344500,-49,-3,38,0,0,0,0,0
1565006344531.25,-49,-3,38,0,0,0,0,0
1565006344562.5,-49,-3,38,0,0,0,0,0
1565006344593.75,-49,-3,38,0,0,0,0,0
1565006344625,-49,-3,38,0,0,0,0,0
1565006344656.25,-50,-3,38,0,0,0,0,0
1565006344687.5,-51,-3,37,0,0,0,0,0
1565006344718.75,-49,-3,38,0,0,0,0,0
1565006344750,-49,-3,38,0,0,0,0,0
1565006344781.25,-49,-3,38,0,0,0,0,0
1565006344812.5,-50,-3,38,0,0,0,0,0
1565006344843.75,-49,-3,38,0,0,0,0,0
1565006344875,-50,-4,39,0,0,0,0,0
1565006344906.25,-58,-3,35,0,0,0,0,0
1565006344937.5,-51,-1,34,0,0,0,0,0
1565006344968.75,-47,-5,39,0,0,0,0,0
1565006345000,-50,-5,45,0,0,0,0,0
1565006345031.25,-41,-4,40,0,0,0,0,0
1565006345062.5,-39,-4,47,0,0,0,0,0
1565006345093.75,-41,-3,44,0,0,0,0,0
1565006345125,-43,-4,42,0,0,0,0,0
1565006345156.25,-46,-4,42,0,0,0,0,0
1565006345187.5,-46,-4,40,0,0,0,0,0
1565006345218.75,-46,-3,40,0,0,0,0,0
1565006345250,-48,-4,41,0,0,0,0,0
1565006345281.25,-47,-4,41,0,0,0,0,0
1565006345312.5,-46,-4,41,0,0,0,0,0
1565006345343.75,-49,-4,41,0,0,0,0,0
1565006345375,-48,-3,39,0,0,0,0,0
1565006345406.25,-47,-4,39,0,0,0,0,0
1565006345437.5,-47,-4,39,0,0,0,0,0
1565006345468.75,-49,-3,39,0,0,0,0,0
1565006345500,-51,-3,39,0,0,0,0,0
1565006345531.25,-46,-3,39,0,0,0,0,0
1565006345562.5,-46,-4,40,0,0,0,0,0
1565006345593.75,-59,-7,42,0,0,0,0,0
1565006345625,-60,-6,48,0,0,0,0,0
1565006345656.25,-50,0,42,0,0,0,0,0
1565006345687.5,-40,2,41,0,0,0,0,0
1565006345718.75,-32,10,43,0,0,0,0,0
1565006345750,-30,11,43,0,0,0,0,0
1565006345781.25,-27,9,46,0,0,0,0,0
1565006345812.5,-28,4,41,0,0,0,0,0
1565006345843.75,-74,-18,64,0,0,0,0,0
1565006345875,-70,-3,60,0,0,0,0,0
1565006345906.25,-31,-1,31,0,0,0,0,0
1565006345937.5,-32,2,24,0,0,0,0,0
1565006345968.75,-58,6,36,0,0,0,0,0
1565006346000,-50,3,55,0,0,0,0,0
1565006346031.25,-42,3,52,0,0,0,0,0
1565006346062.5,-38,3,43,0,0,0,0,0
1565006346093.75,-41,5,46,0,0,0,0,0
1565006346125,-40,6,45,0,0,0,0,0
1565006346156.25,-36,5,33,0,0,0,0,0
1565006346187.5,-64,-13,47,0,0,0,0,0
1565006346218.75,-72,2,52,0,0,0,0,0
1565006346250,-41,0,37,0,0,0,0,0
1565006346281.25,-53,1,46,0,0,0,0,0
1565006346312.5,-44,7,46,0,0,0,0,0
1565006346343.75,-42,10,41,0,0,0,0,0
1565006346375,-37,12,44,0,0,0,0,0
1565006346406.25,-27,12,38,0,0,0,0,0
1565006346437.5,-43,-10,59,0,0,0,0,0
1565006346468.75,-100,-21,72,0,0,0,0,0
1565006346500,-38,-1,36,0,0,0,0,0
1565006346531.25,-23,3,25,0,0,0,0,0
1565006346562.5,-20,10,22,0,0,0,0,0
1565006346593.75,-29,9,34,0,0,0,0,0
1565006346625,-68,-1,61,0,0,0,0,0
1565006346656.25,-63,-6,53,0,0,0,0,0
1565006346687.5,-40,-2,39,0,0,0,0,0
1565006346718.75,-41,-1,35,0,0,0,0,0
1565006346750,-45,-1,43,0,0,0,0,0
1565006346781.25,-53,-1,44,0,0,0,0,0
1565006346812.5,-51,0,40,0,0,0,0,0
1565006346843.75,-48,1,40,0,0,0,0,0
1565006346875,-46,1,42,0,0,0,0,0
1565006346906.25,-48,-1,42,0,0,0,0,0
1565006346937.5,-49,-1,41,0,0,0,0,0
1565006346968.75,-50,-1,39,0,0,0,0,0
1565006347000,-48,-1,39,0,0,0,0,0
1565006347031.25,-48,0,39,0,0,0,0,0
1565006347062.5,-49,-1,39,0,0,0,0,0
1565006347093.75,-50,0,38,0,0,0,0,0
1565006347125,-50,0,37,0,0,0,0,0
1565006347156.25,-50,-1,38,0,0,0,0,0
1565006347187.5,-49,-1,39,0,0,0,0,0
1565006347218.75,-49,-1,39,0,0,0,0,0
1565006347250,-49,-1,39,0,0,0,0,0
1565006347281.25,-49,-2,38,0,0,0,0,0
1565006347312.5,-51,-2,38,0,0,0,0,0
1565006347343.75,-53,0,36,0,0,0,0,0
1565006347375,-58,2,31,0,0,0,0,0
1565006347406.25,-57,6,26,0,0,0,0,0
1565006347437.5,-64,7,20,0,0,0,0,0
1565006347468.75,-67,5,21,0,0,0,0,0
1565006347500,-60,1,26,0,0,0,0,0
1565006347531.25,-52,1,29,0,0,0,0,0
1565006347562.5,-48,2,34,0,0,0,0,0
1565006347593.75,-46,2,39,0,0,0,0,0
1565006347625,-46,2,42,0,0,0,0,0
1565006347656.25,-43,-1,43,0,0,0,0,0
1565006347687.5,-29,-3,50,0,0,0,0,0
1565006347718.75,-40,0,46,0,0,0,0,0
1565006347750,-50,4,37,0,0,0,0,0
1565006347781.25,-50,4,41,0,0,0,0,0
1565006347812.5,-48,4,41,0,0,0,0,0
1565006347843.75,-47,4,42,0,0,0,0,0
1565006347875,-47,4,45,0,0,0,0,0
1565006347906.25,-49,4,45,0,0,0,0,0
1565006347937.5,-49,3,41,0,0,0,0,0
1565006347968.75,-48,4,42,0,0,0,0,0
1565006348000,-48,5,41,0,0,0,0,0
1565006348031.25,-47,6,41,0,0,0,0,0
1565006348062.5,-45,7,41,0,0,0,0,0
1565006348093.75,-45,9,42,0,0,0,0,0
1565006348125,-45,9,41,0,0,0,0,0
1565006348156.25,-45,10,41,0,0,0,0,0
1565006348187.5,-46,10,41,0,0,0,0,0
1565006348218.75,-48,9,41,0,0,0,0,0
1565006348250,-48,9,40,0,0,0,0,0
1565006348281.25,-48,9,39,0,0,0,0,0
1565006348312.5,-48,9,40,0,0,0,0,0
1565006348343.75,-48,9,40,0,0,0,0,0
1565006348375,-48,9,39,0,0,0,0,0
1565006348406.25,-48,10,39,0,0,0,0,0
1565006348437.5,-48,10,39,0,0,0,0,0
1565006348468.75,-46,11,40,0,0,0,0,0
1565006348500,-46,11,40,0,0,0,0,0
1565006348531.25,-46,11,40,0,0,0,0,0
1565006348562.5,-46,10,40,0,0,0,0,0
1565006348593.75,-46,10,40,0,0,0,0,0
1565006348625,-47,10,40,0,0,0,0,0
1565006348656.25,-47,10,40,0,0,0,0,0
1565006348687.5,-48,10,40,0,0,0,0,0
1565006348718.75,-47,10,40,0,0,0,0,0
1565006348750,-46,11,40,0,0,0,0,0
1565006348781.25,-46,11,40,0,0,0,0,0
1565006348812.5,-46,11,40,0,0,0,0,0
1565006348843.75,-47,11,41,0,0,0,0,0
1565006348875,-46,10,40,0,0,0,0,0
1565006348906.25,-46,10,40,0,0,0,0,0
1565006348937.5,-46,11,40,0,0,0,0,0
1565006348968.75,-46,10,41,0,0,0,0,0
1565006349000,-47,10,40,0,0,0,0,0
1565006349031.25,-47,10,40,0,0,0,0,0
1565006349062.5,-46,10,40,0,0,0,0,0
1565006349093.75,-46,10,40,0,0,0,0,0
1565006349125,-46,10,40,0,0,0,0,0
1565006349156.25,-47,11,41,0,0,0,0,0
1565006349187.5,-46,11,40,0,0,0,0,0
1565006349218.75,-46,11,41,0,0,0,0,0
1565006349250,-46,10,40,0,0,0,0,0
1565006349281.25,-46,10,40,0,0,0,0,0
1565006349312.5,-46,11,40,0,0,0,0,0
1565006349343.75,-46,11,41,0,0,0,0,0
1565006349375,-47,10,41,0,0,0,0,0
1565006349406.25,-46,11,41,0,0,0,0,0
1565006349437.5,-46,10,41,0,0,0,0,0
1565006349468.75,-46,11,41,0,0,0,0,0
1565006349500,-46,11,41,0,0,0,0,0
1565006349531.25,-46,10,41,0,0,0,0,0
1565006349562.5,-46,11,40,0,0,0,0,0
1565006349593.75,-45,11,41,0,0,0,0,0
1565006349625,-46,11,41,0,0,0,0,0
1565006349656.25,-45,11,41,0,0,0,0,0
1565006349687.5,-44,11,41,0,0,0,0,0
1565006349718.75,-45,11,41,0,0,0,0,0
1565006349750,-46,10,41,0,0,0,0,0
1565006349781.25,-48,10,41,0,0,0,0,0
1565006349812.5,-46,10,40,0,0,0,0,0
1565006349843.75,-46,10,41,0,0,0,0,0
1565006349875,-46,10,41,0,0,0,0,0
1565006349906.25,-47,10,41,0,0,0,0,0
1565006349937.5,-47,10,41,0,0,0,0,0
1565006349968.75,-48,10,41,0,0,0,0,0
1565006350000,-47,10,40,0,0,0,0,0
1565006350031.25,-46,11,40,0,0,0,0,0
1565006350062.5,-45,12,41,0,0,0,0,0
1565006350093.75,-46,11,41,0,0,0,0,0
1565006350125,-45,11,41,0,0,0,0,0
1565006350156.25,-45,11,41,0,0,0,0,0
1565006350187.5,-45,11,41,0,0,0,0,0
1565006350218.75,-44,11,43,0,0,0,0,0
1565006350250,-43,10,44,0,0,0,0,0
1565006350281.25,-43,11,44,0,0,0,0,0
1565006350312.5,-46,10,42,0,0,0,0,0
1565006350343.75,-46,11,43,0,0,0,0,0
1565006350375,-44,10,41,0,0,0,0,0
1565006350406.25,-43,11,43,0,0,0,0,0
1565006350437.5,-42,11,43,0,0,0,0,0
1565006350468.75,-43,10,43,0,0,0,0,0
1565006350500,-41,10,44,0,0,0,0,0
1565006350531.25,-39,10,46,0,0,0,0,0
1565006350562.5,-38,10,42,0,0,0,0,0
1565006350593.75,-42,10,45,0,0,0,0,0
1565006350625,-41,9,43,0,0,0,0,0
1565006350656.25,-43,5,41,0,0,0,0,0
1565006350687.5,-54,3,43,0,0,0,0,0
1565006350718.75,-54,2,36,0,0,0,0,0
1565006350750,-52,1,33,0,0,0,0,0
1565006350781.25,-58,-1,33,0,0,0,0,0
1565006350812.5,-54,2,32,0,0,0,0,0
1565006350843.75,-50,2,32,0,0,0,0,0
1565006350875,-53,1,32,0,0,0,0,0
1565006350906.25,-56,0,29,0,0,0,0,0
1565006350937.5,-53,0,31,0,0,0,0,0
1565006350968.75,-52,0,34,0,0,0,0,0
1565006351000,-52,-1,33,0,0,0,0,0
1565006351031.25,-53,-1,33,0,0,0,0,0
1565006351062.5,-53,-1,33,0,0,0,0,0
1565006351093.75,-55,0,30,0,0,0,0,0
1565006351125,-55,0,30,0,0,0,0,0
1565006351156.25,-55,0,30,0,0,0,0,0
1565006351187.5,-54,0,31,0,0,0,0,0
1565006351218.75,-54,0,31,0,0,0,0,0
1565006351250,-54,0,31,0,0,0,0,0
1565006351281.25,-54,-1,31,0,0,0,0,0
1565006351312.5,-55,0,30,0,0,0,0,0
1565006351343.75,-55,0,29,0,0,0,0,0
1565006351375,-55,0,30,0,0,0,0,0
1565006351406.25,-55,0,30,0,0,0,0,0
1565006351437.5,-55,0,30,0,0,0,0,0
1565006351468.75,-55,0,30,0,0,0,0,0
1565006351500,-55,0,29,0,0,0,0,0
1565006351531.25,-55,0,29,0,0,0,0,0
1565006351562.5,-55,0,30,0,0,0,0,0
1565006351593.75,-55,0,30,0,0,0,0,0
1565006351625,-55,0,30,0,0,0,0,0
1565006351656.25,-55,0,29,0,0,0,0,0
1565006351687.5,-55,0,29,0,0,0,0,0
1565006351718.75,-55,0,29,0,0,0,0,0
1565006351750,-55,0,29,0,0,0,0,0
1565006351781.25,-55,0,29,0,0,0,0,0
1565006351812.5,-56,0,29,0,0,0,0,0
1565006351843.75,-55,0,28,0,0,0,0,0
1565006351875,-56,0,29,0,0,0,0,0
1565006351906.25,-55,0,29,0,0,0,0,0
1565006351937.5,-55,0,29,0,0,0,0,0
1565006351968.75,-56,0,28,0,0,0,0,0
1565006352000,-55,0,29,0,0,0,0,0
1565006352031.25,-56,0,29,0,0,0,0,0
1565006352062.5,-55,0,28,0,0,0,0,0
1565006352093.75,-56,0,28,0,0,0,0,0
1565006352125,-55,0,28,0,0,0,0,0
1565006352156.25,-56,0,28,0,0,0,0,0
1565006352187.5,-56,0,28,0,0,0,0,0
1565006352218.75,-56,0,28,0,0,0,0,0
1565006352250,-55,0,28,0,0,0,0,0
1565006352281.25,-56,0,28,0,0,0,0,0
1565006352312.5,-56,0,28,0,0,0,0,0
1565006352343.75,-56,0,28,0,0,0,0,0
1565006352375,-56,0,28,0,0,0,0,0
1565006352406.25,-56,0,28,0,0,0,0,0
1565006352437.5,-56,0,28,0,0,0,0,0
1565006352468.75,-56,0,28,0,0,0,0,0
1565006352500,-56,0,28,0,0,0,0,0
1565006352531.25,-56,0,28,0,0,0,0,0
1565006352562.5,-56,0,28,0,0,0,0,0
1565006352593.75,-56,0,28,0,0,0,0,0
1565006352625,-56,0,28,0,0,0,0,0
1565006352656.25,-56,0,28,0,0,0,0,0
1565006352687.5,-56,0,28,0,0,0,0,0
1565006352718.75,-56,0,28,0,0,0,0,0
1565006352750,-56,0,28,0,0,0,0,0
1565006352781.25,-56,0,28,0,0,0,0,0
1565006352812.5,-56,0,28,0,0,0,0,0
1565006352843.75,-56,0,28,0,0,0,0,0
1565006352875,-56,-1,28,0,0,0,0,0
1565006352906.25,-56,0,28,0,0,0,0,0
1565006352937.5,-56,0,28,0,0,0,0,0
1565006352968.75,-56,0,28,0,0,0,0,0
1565006353000,-55,0,28,0,0,0,0,0
1565006353031.25,-55,0,28,0,0,0,0,0
1565006353062.5,-55,1,28,0,0,0,0,0
1565006353093.75,-57,2,26,0,0,0,0,0
1565006353125,-56,3,26,0,0,0,0,0
1565006353156.25,-52,-2,33,0,0,0,0,0
1565006353187.5,-51,-2,36,0,0,0,0,0
1565006353218.75,-54,-2,36,0,0,0,0,0
1565006353250,-51,-4,38,0,0,0,0,0
1565006353281.25,-50,-6,39,0,0,0,0,0
1565006353312.5,-53,-7,37,0,0,0,0,0
1565006353343.75,-50,-6,35,0,0,0,0,0
1565006353375,-53,-6,33,0,0,0,0,0
1565006353406.25,-52,-2,30,0,0,0,0,0
1565006353437.5,-54,0,30,0,0,0,0,0
1565006353468.75,-53,0,30,0,0,0,0,0
1565006353500,-53,-1,30,0,0,0,0,0
1565006353531.25,-58,-3,28,0,0,0,0,0
1565006353562.5,-58,-4,25,0,0,0,0,0
1565006353593.75,-57,-1,28,0,0,0,0,0
1565006353625,-56,-2,31,0,0,0,0,0
1565006353656.25,-49,-3,40,0,0,0,0,0
1565006353687.5,-48,-3,40,0,0,0,0,0
1565006353718.75,-49,-3,39,0,0,0,0,0
1565006353750,-50,-4,37,0,0,0,0,0
1565006353781.25,-49,-4,38,0,0,0,0,0
1565006353812.5,-53,-4,35,0,0,0,0,0
1565006353843.75,-49,-4,39,0,0,0,0,0
1565006353875,-47,-4,41,0,0,0,0,0
1565006353906.25,-49,-5,40,0,0,0,0,0
1565006353937.5,-50,-4,38,0,0,0,0,0
1565006353968.75,-52,-5,37,0,0,0,0,0
1565006354000,-37,-9,48,0,0,0,0,0
1565006354031.25,-23,-10,57,0,0,0,0,0
1565006354062.5,-22,-15,57,0,0,0,0,0
1565006354093.75,-27,-16,56,0,0,0,0,0
1565006354125,-30,-16,53,0,0,0,0,0
1565006354156.25,-32,-18,52,0,0,0,0,0
1565006354187.5,-36,-21,48,0,0,0,0,0
1565006354218.75,-33,-20,51,0,0,0,0,0
1565006354250,-32,-20,51,0,0,0,0,0
1565006354281.25,-37,-20,49,0,0,0,0,0
1565006354312.5,-38,-19,46,0,0,0,0,0
1565006354343.75,-39,-17,48,0,0,0,0,0
1565006354375,-38,-16,49,0,0,0,0,0
1565006354406.25,-34,-9,56,0,0,0,0,0
1565006354437.5,-37,4,55,0,0,0,0,0
1565006354468.75,-50,16,42,0,0,0,0,0
1565006354500,-50,11,43,0,0,0,0,0
1565006354531.25,-49,9,44,0,0,0,0,0
1565006354562.5,-43,9,47,0,0,0,0,0
1565006354593.75,-33,13,53,0,0,0,0,0
1565006354625,-36,16,51,0,0,0,0,0
1565006354656.25,-44,20,44,0,0,0,0,0
1565006354687.5,-48,20,39,0,0,0,0,0
1565006354718.75,-50,9,33,0,0,0,0,0
1565006354750,-53,7,32,0,0,0,0,0
1565006354781.25,-52,-3,28,0,0,0,0,0
1565006354812.5,-48,-1,27,0,0,0,0,0
1565006354843.75,-50,-2,27,0,0,0,0,0
1565006354875,-51,1,29,0,0,0,0,0
1565006354906.25,-85,9,28,0,0,0,0,0
1565006354937.5,-82,9,19,0,0,0,0,0
1565006354968.75,-49,-14,17,0,0,0,0,0
1565006355000,-50,2,22,0,0,0,0,0
1565006355031.25,-52,9,25,0,0,0,0,0
1565006355062.5,-52,13,41,0,0,0,0,0
1565006355093.75,-48,4,46,0,0,0,0,0
1565006355125,-46,-3,42,0,0,0,0,0
1565006355156.25,-50,0,38,0,0,0,0,0
1565006355187.5,-50,3,30,0,0,0,0,0
1565006355218.75,-49,3,28,0,0,0,0,0
1565006355250,-56,4,24,0,0,0,0,0
1565006355281.25,-58,3,20,0,0,0,0,0
1565006355312.5,-64,4,12,0,0,0,0,0
1565006355343.75,-71,1,10,0,0,0,0,0
1565006355375,-66,1,6,0,0,0,0,0
1565006355406.25,-64,4,6,0,0,0,0,0
1565006355437.5,-61,6,9,0,0,0,0,0
1565006355468.75,-62,5,10,0,0,0,0,0
1565006355500,-62,3,12,0,0,0,0,0
1565006355531.25,-62,2,12,0,0,0,0,0
1565006355562.5,-62,2,12,0,0,0,0,0
1565006355593.75,-62,3,11,0,0,0,0,0
1565006355625,-63,3,9,0,0,0,0,0
1565006355656.25,-62,4,8,0,0,0,0,0
1565006355687.5,-61,3,8,0,0,0,0,0
1565006355718.75,-64,3,7,0,0,0,0,0
1565006355750,-63,4,7,0,0,0,0,0
1565006355781.25,-62,5,7,0,0,0,0,0
1565006355812.5,-61,4,7,0,0,0,0,0
1565006355843.75,-63,3,8,0,0,0,0,0
1565006355875,-63,3,8,0,0,0,0,0
1565006355906.25,-63,3,7,0,0,0,0,0
1565006355937.5,-62,4,8,0,0,0,0,0
1565006355968.75,-62,4,8,0,0,0,0,0
1565006356000,-62,4,8,0,0,0,0,0
1565006356031.25,-62,4,8,0,0,0,0,0
1565006356062.5,-62,4,8,0,0,0,0,0
1565006356093.75,-63,4,9,0,0,0,0,0
1565006356125,-63,4,9,0,0,0,0,0
1565006356156.25,-62,4,10,0,0,0,0,0
1565006356187.5,-62,4,9,0,0,0,0,0
1565006356218.75,-62,4,10,0,0,0,0,0
1565006356250,-62,4,10,0,0,0,0,0
1565006356281.25,-62,4,9,0,0,0,0,0
1565006356312.5,-63,4,10,0,0,0,0,0
1565006356343.75,-62,4,10,0,0,0,0,0
1565006356375,-61,5,10,0,0,0,0,0
1565006356406.25,-60,5,10,0,0,0,0,0
1565006356437.5,-60,5,9,0,0,0,0,0
1565006356468.75,-62,4,10,0,0,0,0,0
1565006356500,-65,2,10,0,0,0,0,0
1565006356531.25,-65,4,10,0,0,0,0,0
1565006356562.5,-62,3,11,0,0,0,0,0
1565006356593.75,-62,4,11,0,0,0,0,0
1565006356625,-62,3,12,0,0,0,0,0
1565006356656.25,-62,3,13,0,0,0,0,0
1565006356687.5,-62,2,15,0,0,0,0,0
1565006356718.75,-62,3,16,0,0,0,0,0
1565006356750,-60,4,17,0,0,0,0,0
1565006356781.25,-59,4,17,0,0,0,0,0
1565006356812.5,-58,4,17,0,0,0,0,0
1565006356843.75,-59,5,17,0,0,0,0,0
1565006356875,-60,4,18,0,0,0,0,0
1565006356906.25,-61,4,17,0,0,0,0,0
1565006356937.5,-61,4,17,0,0,0,0,0
1565006356968.75,-61,5,16,0,0,0,0,0
1565006357000,-60,5,17,0,0,0,0,0
1565006357031.25,-59,5,18,0,0,0,0,0
1565006357062.5,-58,4,19,0,0,0,0,0
1565006357093.75,-58,4,24,0,0,0,0,0
1565006357125,-59,4,22,0,0,0,0,0
1565006357156.25,-60,4,19,0,0,0,0,0
1565006357187.5,-60,5,18,0,0,0,0,0
1565006357218.75,-59,5,19,0,0,0,0,0
1565006357250,-61,5,18,0,0,0,0,0
1565006357281.25,-60,4,21,0,0,0,0,0
1565006357312.5,-61,4,21,0,0,0,0,0
1565006357343.75,-58,5,21,0,0,0,0,0
1565006357375,-57,5,23,0,0,0,0,0
1565006357406.25,-56,5,25,0,0,0,0,0
1565006357437.5,-57,6,24,0,0,0,0,0
1565006357468.75,-57,6,23,0,0,0,0,0
1565006357500,-58,6,22,0,0,0,0,0
1565006357531.25,-59,5,22,0,0,0,0,0
1565006357562.5,-59,5,22,0,0,0,0,0
1565006357593.75,-58,5,24,0,0,0,0,0
1565006357625,-57,6,25,0,0,0,0,0
1565006357656.25,-56,6,26,0,0,0,0,0
1565006357687.5,-56,6,25,0,0,0,0,0
1565006357718.75,-56,6,25,0,0,0,0,0
1565006357750,-58,6,24,0,0,0,0,0
1565006357781.25,-58,6,24,0,0,0,0,0
1565006357812.5,-58,6,25,0,0,0,0,0
1565006357843.75,-58,6,25,0,0,0,0,0
1565006357875,-57,6,25,0,0,0,0,0
1565006357906.25,-56,6,26,0,0,0,0,0
1565006357937.5,-56,6,27,0,0,0,0,0
1565006357968.75,-56,6,27,0,0,0,0,0
1565006358000,-56,6,26,0,0,0,0,0
1565006358031.25,-55,6,26,0,0,0,0,0
1565006358062.5,-56,6,26,0,0,0,0,0
1565006358093.75,-57,6,25,0,0,0,0,0
1565006358125,-57,6,26,0,0,0,0,0
1565006358156.25,-57,5,26,0,0,0,0,0
1565006358187.5,-57,5,26,0,0,0,0,0
1565006358218.75,-58,5,26,0,0,0,0,0
1565006358250,-57,5,25,0,0,0,0,0
1565006358281.25,-54,5,27,0,0,0,0,0
1565006358312.5,-54,6,28,0,0,0,0,0
1565006358343.75,-57,4,26,0,0,0,0,0
1565006358375,-58,4,27,0,0,0,0,0
1565006358406.25,-57,4,26,0,0,0,0,0
1565006358437.5,-57,4,26,0,0,0,0,0
1565006358468.75,-57,4,26,0,0,0,0,0
1565006358500,-57,5,26,0,0,0,0,0
1565006358531.25,-56,4,26,0,0,0,0,0
1565006358562.5,-56,5,26,0,0,0,0,0
1565006358593.75,-57,4,27,0,0,0,0,0
1565006358625,-57,4,27,0,0,0,0,0
1565006358656.25,-57,4,27,0,0,0,0,0
1565006358687.5,-57,4,27,0,0,0,0,0
1565006358718.75,-58,3,28,0,0,0,0,0
1565006358750,-59,3,30,0,0,0,0,0
1565006358781.25,-57,2,34,0,0,0,0,0
1565006358812.5,-51,3,35,0,0,0,0,0
1565006358843.75,-48,5,32,0,0,0,0,0
1565006358875,-50,6,29,0,0,0,0,0
1565006358906.25,-52,6,29,0,0,0,0,0
1565006358937.5,-58,5,25,0,0,0,0,0
1565006358968.75,-60,5,25,0,0,0,0,0
1565006359000,-63,3,29,0,0,0,0,0
1565006359031.25,-61,2,31,0,0,0,0,0
1565006359062.5,-62,-1,37,0,0,0,0,0
1565006359093.75,-58,1,42,0,0,0,0,0
1565006359125,-52,-1,52,0,0,0,0,0
1565006359156.25,-53,-4,60,0,0,0,0,0
1565006359187.5,-43,-5,69,0,0,0,0,0
1565006359218.75,-28,-3,63,0,0,0,0,0
1565006359250,-18,6,35,0,0,0,0,0
1565006359281.25,-14,16,10,0,0,0,0,0
1565006359312.5,7,37,-43,0,0,0,0,0
1565006359343.75,-3,36,-92,0,0,0,0,0
1565006359375,-54,22,-128,0,0,0,0,0
1565006359406.25,-42,18,-115,0,0,0,0,0
1565006359437.5,-22,46,-69,0,0,0,0,0
1565006359468.75,-81,49,-23,0,0,0,0,0
1565006359500,-121,53,21,0,0,0,0,0
1565006359531.25,-11,7,121,0,0,0,0,0
1565006359562.5,65,-8,88,0,0,0,0,0
1565006359593.75,-87,-68,48,0,0,0,0,0
1565006359625,-93,-15,0,0,0,0,0,0
1565006359656.25,26,104,-67,0,0,0,0,0
1565006359687.5,47,74,-96,0,0,0,0,0
1565006359718.75,-14,-38,-107,0,0,0,0,0
1565006359750,-65,-5,-76,0,0,0,0,0
1565006359781.25,49,20,-128,0,0,0,0,0
1565006359812.5,24,37,-124,0,0,0,0,0
1565006359843.75,-90,29,-29,0,0,0,0,0
1565006359875,-128,34,41,0,0,0,0,0
1565006359906.25,-26,14,66,0,0,0,0,0
1565006359937.5,34,41,55,0,0,0,0,0
1565006359968.75,-67,-47,72,0,0,0,0,0
1565006360000,-4,37,-2,0,0,0,0,0
1565006360031.25,39,64,-30,0,0,0,0,0
1565006360062.5,38,84,-61,0,0,0,0,0
1565006360093.75,23,35,-106,0,0,0,0,0
1565006360125,-23,47,-51,0,0,0,0,0
1565006360156.25,22,28,-105,0,0,0,0,0
1565006360187.5,-26,41,-67,0,0,0,0,0
1565006360218.75,-82,46,-23,0,0,0,0,0
1565006360250,-96,32,45,0,0,0,0,0
1565006360281.25,10,62,93,0,0,0,0,0
1565006360312.5,-10,14,37,0,0,0,0,0
1565006360343.75,-44,-12,83,0,0,0,0,0
1565006360375,-13,42,23,0,0,0,0,0
1565006360406.25,8,60,-11,0,0,0,0,0
1565006360437.5,17,79,-113,0,0,0,0,0
1565006360468.75,-14,77,-128,0,0,0,0,0
1565006360500,-57,2,-48,0,0,0,0,0
1565006360531.25,-36,50,-51,0,0,0,0,0
1565006360562.5,-31,34,-61,0,0,0,0,0
1565006360593.75,-89,40,-9,0,0,0,0,0
1565006360625,-110,38,67,0,0,0,0,0
1565006360656.25,46,37,87,0,0,0,0,0
1565006360687.5,-59,-63,110,0,0,0,0,0
1565006360718.75,-28,6,51,0,0,0,0,0
1565006360750,20,34,-5,0,0,0,0,0
1565006360781.25,36,115,-111,0,0,0,0,0
1565006360812.5,-42,111,-128,0,0,0,0,0
1565006360843.75,-66,63,-21,0,0,0,0,0
1565006360875,-43,53,-95,0,0,0,0,0
1565006360906.25,-48,27,-40,0,0,0,0,0
1565006360937.5,-94,20,22,0,0,0,0,0
1565006360968.75,8,-13,115,0,0,0,0,0
1565006361000,94,-70,127,0,0,0,0,0
1565006361031.25,-73,-128,127,0,0,0,0,0
1565006361062.5,-86,-87,101,0,0,0,0,0
1565006361093.75,17,8,-45,0,0,0,0,0
1565006361125,44,67,-65,0,0,0,0,0
1565006361156.25,23,62,-128,0,0,0,0,0
1565006361187.5,-89,-5,-97,0,0,0,0,0
1565006361218.75,37,35,-128,0,0,0,0,0
1565006361250,29,22,-94,0,0,0,0,0
1565006361281.25,-59,-16,4,0,0,0,0,0
1565006361312.5,-82,-28,30,0,0,0,0,0
1565006361343.75,127,-128,127,0,0,0,0,0
1565006361375,17,-128,127,0,0,0,0,0
1565006361406.25,-128,-128,90,0,0,0,0,0
1565006361437.5,-120,-58,-62,0,0,0,0,0
1565006361468.75,-95,-5,-68,0,0,0,0,0
1565006361500,-17,-29,77,0,0,0,0,0
1565006361531.25,6,-24,85,0,0,0,0,0
1565006361562.5,-14,17,-30,0,0,0,0,0
1565006361593.75,4,45,-43,0,0,0,0,0
1565006361625,-78,74,-49,0,0,0,0,0
1565006361656.25,-90,52,-43,0,0,0,0,0
1565006361687.5,18,38,9,0,0,0,0,0
1565006361718.75,67,39,50,0,0,0,0,0
1565006361750,40,41,72,0,0,0,0,0
1565006361781.25,14,33,59,0,0,0,0,0
1565006361812.5,5,14,71,0,0,0,0,0
1565006361843.75,0,11,71,0,0,0,0,0
1565006361875,24,-5,113,0,0,0,0,0
1565006361906.25,8,-1,87,0,0,0,0,0
1565006361937.5,-17,26,29,0,0,0,0,0
1565006361968.75,-7,26,21,0,0,0,0,0
1565006362000,-5,-2,60,0,0,0,0,0
1565006362031.25,-13,9,38,0,0,0,0,0
1565006362062.5,9,9,35,0,0,0,0,0
1565006362093.75,23,0,52,0,0,0,0,0
1565006362125,28,1,53,0,0,0,0,0
1565006362156.25,33,-2,53,0,0,0,0,0
1565006362187.5,36,-4,51,0,0,0,0,0
1565006362218.75,48,-5,50,0,0,0,0,0
1565006362250,45,-5,46,0,0,0,0,0
1565006362281.25,55,-9,44,0,0,0,0,0
1565006362312.5,53,-11,41,0,0,0,0,0
1565006362343.75,55,-18,39,0,0,0,0,0
1565006362375,54,-19,37,0,0,0,0,0
1565006362406.25,48,-17,36,0,0,0,0,0
1565006362437.5,50,-17,38,0,0,0,0,0
1565006362468.75,45,-13,37,0,0,0,0,0
1565006362500,42,-11,38,0,0,0,0,0
1565006362531.25,37,-11,51,0,0,0,0,0
1565006362562.5,40,-10,51,0,0,0,0,0
1565006362593.75,45,-7,47,0,0,0,0,0
1565006362625,43,-7,48,0,0,0,0,0
1565006362656.25,41,-7,50,0,0,0,0,0
1565006362687.5,42,-8,48,0,0,0,0,0
1565006362718.75,39,-10,53,0,0,0,0,0
1565006362750,41,-10,54,0,0,0,0,0
1565006362781.25,37,-9,53,0,0,0,0,0
1565006362812.5,40,-4,52,0,0,0,0,0
1565006362843.75,35,-2,53,0,0,0,0,0
1565006362875,43,-6,55,0,0,0,0,0
1565006362906.25,46,-4,52,0,0,0,0,0
1565006362937.5,36,-3,52,0,0,0,0,0
1565006362968.75,37,-2,53,0,0,0,0,0
1565006363000,40,-1,52,0,0,0,0,0
1565006363031.25,44,0,51,0,0,0,0,0
1565006363062.5,36,2,50,0,0,0,0,0
1565006363093.75,36,3,51,0,0,0,0,0
1565006363125,37,3,54,0,0,0,0,0
1565006363156.25,33,3,54,0,0,0,0,0
1565006363187.5,35,8,50,0,0,0,0,0
1565006363218.75,36,8,51,0,0,0,0,0
1565006363250,27,7,58,0,0,0,0,0
1565006363281.25,29,13,60,0,0,0,0,0
1565006363312.5,28,17,61,0,0,0,0,0
1565006363343.75,32,15,64,0,0,0,0,0
1565006363375,31,14,62,0,0,0,0,0
1565006363406.25,28,10,56,0,0,0,0,0
1565006363437.5,24,11,53,0,0,0,0,0
1565006363468.75,16,8,53,0,0,0,0,0
1565006363500,15,7,54,0,0,0,0,0
1565006363531.25,11,5,55,0,0,0,0,0
1565006363562.5,11,6,58,0,0,0,0,0
1565006363593.75,7,7,59,0,0,0,0,0
1565006363625,8,6,56,0,0,0,0,0
1565006363656.25,2,3,53,0,0,0,0,0
1565006363687.5,0,5,53,0,0,0,0,0
1565006363718.75,1,9,54,0,0,0,0,0
1565006363750,5,10,57,0,0,0,0,0
1565006363781.25,8,12,64,0,0,0,0,0
1565006363812.5,11,12,63,0,0,0,0,0
1565006363843.75,10,14,62,0,0,0,0,0
1565006363875,8,15,60,0,0,0,0,0
1565006363906.25,8,15,63,0,0,0,0,0
1565006363937.5,12,16,67,0,0,0,0,0
1565006363968.75,18,16,71,0,0,0,0,0
1565006364000,38,15,83,0,0,0,0,0
1565006364031.25,46,14,84,0,0,0,0,0
1565006364062.5,40,9,69,0,0,0,0,0
1565006364093.75,32,6,57,0,0,0,0,0
1565006364125,16,3,21,0,0,0,0,0
1565006364156.25,15,2,4,0,0,0,0,0
1565006364187.5,9,5,-33,0,0,0,0,0
1565006364218.75,-2,-1,-62,0,0,0,0,0
1565006364250,-53,-95,-2,0,0,0,0,0
1565006364281.25,-71,-88,45,0,0,0,0,0
1565006364312.5,-33,-74,70,0,0,0,0,0
1565006364343.75,13,-122,41,0,0,0,0,0
1565006364375,127,-89,127,0,0,0,0,0
1565006364406.25,127,-128,127,0,0,0,0,0
1565006364437.5,-80,-128,116,0,0,0,0,0
1565006364468.75,-37,-128,88,0,0,0,0,0
1565006364500,-31,-69,-7,0,0,0,0,0
1565006364531.25,-6,43,-7,0,0,0,0,0
1565006364562.5,35,19,-78,0,0,0,0,0
1565006364593.75,-53,112,-128,0,0,0,0,0
1565006364625,-68,90,-128,0,0,0,0,0
1565006364656.25,59,34,-96,0,0,0,0,0
1565006364687.5,94,41,-53,0,0,0,0,0
1565006364718.75,65,15,-11,0,0,0,0,0
1565006364750,40,7,2,0,0,0,0,0
1565006364781.25,60,-10,41,0,0,0,0,0
1565006364812.5,77,-15,55,0,0,0,0,0
1565006364843.75,68,-28,19,0,0,0,0,0
1565006364875,48,-39,1,0,0,0,0,0
1565006364906.25,-20,-109,9,0,0,0,0,0
1565006364937.5,-62,-128,38,0,0,0,0,0
1565006364968.75,-34,-128,36,0,0,0,0,0
1565006365000,127,-128,34,0,0,0,0,0
1565006365031.25,127,-93,81,0,0,0,0,0
1565006365062.5,127,-128,81,0,0,0,0,0
1565006365093.75,6,-105,74,0,0,0,0,0
1565006365125,-41,-94,64,0,0,0,0,0
1565006365156.25,-6,-92,24,0,0,0,0,0
1565006365187.5,38,-13,-69,0,0,0,0,0
1565006365218.75,64,48,-118,0,0,0,0,0
1565006365250,15,123,-128,0,0,0,0,0
1565006365281.25,-92,98,-128,0,0,0,0,0
1565006365312.5,4,81,-128,0,0,0,0,0
1565006365343.75,76,75,-95,0,0,0,0,0
1565006365375,-7,33,-54,0,0,0,0,0
1565006365406.25,-41,33,-50,0,0,0,0,0
1565006365437.5,-68,41,-48,0,0,0,0,0
1565006365468.75,-79,41,-41,0,0,0,0,0
1565006365500,-72,33,-10,0,0,0,0,0
1565006365531.25,-52,37,7,0,0,0,0,0
1565006365562.5,7,31,52,0,0,0,0,0
1565006365593.75,12,22,55,0,0,0,0,0
1565006365625,-13,17,65,0,0,0,0,0
1565006365656.25,-36,17,63,0,0,0,0,0
1565006365687.5,-73,15,55,0,0,0,0,0
1565006365718.75,-71,20,56,0,0,0,0,0
1565006365750,-47,17,51,0,0,0,0,0
1565006365781.25,-39,12,52,0,0,0,0,0
1565006365812.5,-36,5,56,0,0,0,0,0
1565006365843.75,-32,9,57,0,0,0,0,0
1565006365875,-30,13,54,0,0,0,0,0
1565006365906.25,-47,17,42,0,0,0,0,0
1565006365937.5,-57,19,36,0,0,0,0,0
1565006365968.75,-50,22,36,0,0,0,0,0
1565006366000,-38,21,38,0,0,0,0,0
1565006366031.25,-36,13,43,0,0,0,0,0
1565006366062.5,-43,8,43,0,0,0,0,0
1565006366093.75,-47,7,44,0,0,0,0,0
1565006366125,-49,5,42,0,0,0,0,0
1565006366156.25,-51,1,43,0,0,0,0,0
1565006366187.5,-51,-1,46,0,0,0,0,0
1565006366218.75,-50,-3,48,0,0,0,0,0
1565006366250,-42,-3,54,0,0,0,0,0
1565006366281.25,-40,-4,51,0,0,0,0,0
1565006366312.5,-42,-5,48,0,0,0,0,0
1565006366343.75,-40,-7,48,0,0,0,0,0
1565006366375,-41,-9,49,0,0,0,0,0
1565006366406.25,-40,-13,50,0,0,0,0,0
1565006366437.5,-39,-13,50,0,0,0,0,0
1565006366468.75,-42,-14,47,0,0,0,0,0
1565006366500,-45,-13,40,0,0,0,0,0
1565006366531.25,-45,-10,40,0,0,0,0,0
1565006366562.5,-52,-5,38,0,0,0,0,0
1565006366593.75,-57,-4,35,0,0,0,0,0
1565006366625,-48,-2,38,0,0,0,0,0
1565006366656.25,-45,-2,38,0,0,0,0,0
1565006366687.5,-53,-4,36,0,0,0,0,0
1565006366718.75,-54,-4,35,0,0,0,0,0
1565006366750,-51,-4,33,0,0,0,0,0
1565006366781.25,-54,-4,32,0,0,0,0,0
1565006366812.5,-54,-1,31,0,0,0,0,0
1565006366843.75,-52,0,31,0,0,0,0,0
1565006366875,-54,1,29,0,0,0,0,0
1565006366906.25,-57,1,28,0,0,0,0,0
1565006366937.5,-57,0,27,0,0,0,0,0
1565006366968.75,-57,-1,28,0,0,0,0,0
1565006367000,-54,-3,32,0,0,0,0,0
1565006367031.25,-53,-3,33,0,0,0,0,0
1565006367062.5,-54,-2,33,0,0,0,0,0
1565006367093.75,-55,-2,31,0,0,0,0,0
1565006367125,-56,-1,30,0,0,0,0,0
1565006367156.25,-56,-1,29,0,0,0,0,0
1565006367187.5,-55,-2,30,0,0,0,0,0
1565006367218.75,-54,-3,32,0,0,0,0,0
1565006367250,-53,-2,32,0,0,0,0,0
1565006367281.25,-52,-1,33,0,0,0,0,0
1565006367312.5,-52,-1,33,0,0,0,0,0
1565006367343.75,-53,-1,32,0,0,0,0,0
1565006367375,-53,-2,32,0,0,0,0,0
1565006367406.25,-54,-2,31,0,0,0,0,0
1565006367437.5,-54,-2,31,0,0,0,0,0
1565006367468.75,-55,-2,30,0,0,0,0,0
1565006367500,-55,-2,30,0,0,0,0,0
1565006367531.25,-55,-2,30,0,0,0,0,0
1565006367562.5,-56,-1,29,0,0,0,0,0
1565006367593.75,-55,-2,29,0,0,0,0,0
1565006367625,-55,-2,29,0,0,0,0,0
1565006367656.25,-55,-2,30,0,0,0,0,0
1565006367687.5,-55,-2,30,0,0,0,0,0
1565006367718.75,-55,-2,30,0,0,0,0,0
1565006367750,-55,-2,30,0,0,0,0,0
1565006367781.25,-54,-2,30,0,0,0,0,0
1565006367812.5,-54,-2,31,0,0,0,0,0
1565006367843.75,-54,-2,31,0,0,0,0,0
1565006367875,-54,-2,31,0,0,0,0,0
1565006367906.25,-54,-2,30,0,0,0,0,0
1565006367937.5,-55,-2,30,0,0,0,0,0
1565006367968.75,-55,-2,30,0,0,0,0,0
1565006368000,-55,-2,30,0,0,0,0,0
1565006368031.25,-56,-1,29,0,0,0,0,0
1565006368062.5,-55,-3,30,0,0,0,0,0
1565006368093.75,-55,-1,30,0,0,0,0,0
1565006368125,-54,-3,30,0,0,0,0,0
1565006368156.25,-55,-2,30,0,0,0,0,0
1565006368187.5,-54,-2,30,0,0,0,0,0
1565006368218.75,-55,-2,30,0,0,0,0,0
1565006368250,-55,-2,30,0,0,0,0,0
1565006368281.25,-55,-2,30,0,0,0,0,0
1565006368312.5,-55,-2,30,0,0,0,0,0
1565006368343.75,-55,-2,29,0,0,0,0,0
1565006368375,-55,-2,29,0,0,0,0,0
1565006368406.25,-55,-2,29,0,0,0,0,0
1565006368437.5,-55,-2,29,0,0,0,0,0
1565006368468.75,-55,-2,30,0,0,0,0,0
1565006368500,-55,-2,30,0,0,0,0,0
1565006368531.25,-55,-2,30,0,0,0,0,0
1565006368562.5,-55,-2,29,0,0,0,0,0
1565006368593.75,-55,-2,29,0,0,0,0,0
1565006368625,-55,-2,29,0,0,0,0,0
1565006368656.25,-55,-2,30,0,0,0,0,0
1565006368687.5,-55,-2,30,0,0,0,0,0
1565006368718.75,-55,-1,29,0,0,0,0,0
1565006368750,-55,-2,29,0,0,0,0,0
1565006368781.25,-55,-2,29,0,0,0,0,0
1565006368812.5,-55,-2,29,0,0,0,0,0
1565006368843.75,-55,-2,29,0,0,0,0,0
1565006368875,-55,-2,29,0,0,0,0,0
1565006368906.25,-55,-1,29,0,0,0,0,0
1565006368937.5,-55,-2,29,0,0,0,0,0
1565006368968.75,-55,-2,29,0,0,0,0,0
1565006369000,-55,-2,29,0,0,0,0,0
1565006369031.25,-55,-2,29,0,0,0,0,0
1565006369062.5,-55,-2,29,0,0,0,0,0
1565006369093.75,-55,-2,29,0,0,0,0,0
1565006369125,-55,-2,29,0,0,0,0,0
1565006369156.25,-55,-2,29,0,0,0,0,0
1565006369187.5,-55,-2,29,0,0,0,0,0
1565006369218.75,-55,-2,29,0,0,0,0,0
1565006369250,-55,-2,29,0,0,0,0,0
1565006369281.25,-55,-2,29,0,0,0,0,0
1565006369312.5,-55,-2,29,0,0,0,0,0
1565006369343.75,-55,-2,29,0,0,0,0,0
1565006369375,-55,-2,29,0,0,0,0,0
1565006369406.25,-55,-1,29,0,0,0,0,0
1565006369437.5,-55,-2,29,0,0,0,0,0
1565006369468.75,-55,-2,29,0,0,0,0,0
1565006369500,-55,-2,29,0,0,0,0,0
1565006369531.25,-55,-2,29,0,0,0,0,0
1565006369562.5,-55,-2,29,0,0,0,0,0
1565006369593.75,-55,-2,29,0,0,0,0,0
1565006369625,-55,-2,29,0,0,0,0,0
1565006369656.25,-55,-2,29,0,0,0,0,0
1565006369687.5,-55,-2,29,0,0,0,0,0
1565006369718.75,-55,-2,29,0,0,0,0,0
1565006369750,-55,-2,29,0,0,0,0,0
1565006369781.25,-55,-2,29,0,0,0,0,0
1565006369812.5,-55,-2,29,0,0,0,0,0
1565006369843.75,-55,-2,29,0,0,0,0,0
1565006369875,-55,-2,29,0,0,0,0,0
1565006369906.25,-55,-1,28,0,0,0,0,0
1565006369937.5,-55,-2,29,0,0,0,0,0
1565006369968.75,-55,-2,29,0,0,0,0,0
1565006370000,-55,-2,29,0,0,0,0,0
1565006370031.25,-55,-2,29,0,0,0,0,0
1565006370062.5,-55,-2,29,0,0,0,0,0
1565006370093.75,-55,-2,29,0,0,0,0,0
1565006370125,-55,-2,29,0,0,0,0,0
1565006370156.25,-56,-1,28,0,0,0,0,0
1565006370187.5,-55,-2,29,0,0,0,0,0
1565006370218.75,-55,-2,29,0,0,0,0,0
1565006370250,-55,-2,29,0,0,0,0,0
1565006370281.25,-55,-2,28,0,0,0,0,0
1565006370312.5,-56,-2,29,0,0,0,0,0
1565006370343.75,-55,-2,29,0,0,0,0,0
1565006370375,-55,-2,29,0,0,0,0,0
1565006370406.25,-55,-2,29,0,0,0,0,0
1565006370437.5,-55,-2,29,0,0,0,0,0
1565006370468.75,-55,-2,29,0,0,0,0,0
1565006370500,-55,-2,29,0,0,0,0,0
1565006370531.25,-55,-2,28,0,0,0,0,0
1565006370562.5,-55,-2,29,0,0,0,0,0
1565006370593.75,-55,-1,29,0,0,0,0,0
1565006370625,-56,-2,28,0,0,0,0,0
1565006370656.25,-55,-2,28,0,0,0,0,0
1565006370687.5,-55,-2,29,0,0,0,0,0
1565006370718.75,-56,-1,29,0,0,0,0,0
1565006370750,-56,-2,28,0,0,0,0,0
1565006370781.25,-55,-2,29,0,0,0,0,0
1565006370812.5,-55,-2,29,0,0,0,0,0
1565006370843.75,-56,-2,29,0,0,0,0,0
1565006370875,-55,-2,29,0,0,0,0,0
1565006370906.25,-56,-2,29,0,0,0,0,0
1565006370937.5,-56,-2,28,0,0,0,0,0
1565006370968.75,-56,-1,28,0,0,0,0,0
1565006371000,-56,-1,29,0,0,0,0,0
1565006371031.25,-55,-2,28,0,0,0,0,0
1565006371062.5,-55,-2,29,0,0,0,0,0
1565006371093.75,-55,-2,29,0,0,0,0,0
1565006371125,-55,-2,28,0,0,0,0,0
1565006371156.25,-56,-2,28,0,0,0,0,0
1565006371187.5,-55,-2,28,0,0,0,0,0
1565006371218.75,-55,-2,29,0,0,0,0,0
1565006371250,-56,-2,29,0,0,0,0,0
1565006371281.25,-55,-2,29,0,0,0,0,0
1565006371312.5,-56,-1,29,0,0,0,0,0
1565006371343.75,-55,-2,30,0,0,0,0,0
1565006371375,-52,-2,30,0,0,0,0,0
1565006371406.25,-54,0,27,0,0,0,0,0
1565006371437.5,-59,-4,25,0,0,0,0,0
1565006371468.75,-67,-3,27,0,0,0,0,0
1565006371500,-54,1,30,0,0,0,0,0
1565006371531.25,-54,3,28,0,0,0,0,0
1565006371562.5,-56,1,32,0,0,0,0,0
1565006371593.75,-53,1,25,0,0,0,0,0
1565006371625,-61,5,0,0,0,0,0,0
1565006371656.25,-89,3,-17,0,0,0,0,0
1565006371687.5,-56,2,-1,0,0,0,0,0
1565006371718.75,-62,3,0,0,0,0,0,0
1565006371750,-70,3,-11,0,0,0,0,0
1565006371781.25,-66,5,-11,0,0,0,0,0
1565006371812.5,-55,2,2,0,0,0,0,0
1565006371843.75,-63,-1,10,0,0,0,0,0
1565006371875,-62,0,6,0,0,0,0,0
1565006371906.25,-59,0,6,0,0,0,0,0
1565006371937.5,-58,3,5,0,0,0,0,0
1565006371968.75,-51,5,4,0,0,0,0,0
1565006372000,-73,0,-9,0,0,0,0,0
1565006372031.25,-81,-4,-11,0,0,0,0,0
1565006372062.5,-60,-1,-7,0,0,0,0,0
1565006372093.75,-61,2,-4,0,0,0,0,0
1565006372125,-68,-2,5,0,0,0,0,0
1565006372156.25,-61,0,3,0,0,0,0,0
1565006372187.5,-56,2,4,0,0,0,0,0
1565006372218.75,-60,3,6,0,0,0,0,0
1565006372250,-58,2,7,0,0,0,0,0
1565006372281.25,-67,1,-6,0,0,0,0,0
1565006372312.5,-74,-2,-9,0,0,0,0,0
1565006372343.75,-67,0,-5,0,0,0,0,0
1565006372375,-62,0,-4,0,0,0,0,0
1565006372406.25,-66,-1,4,0,0,0,0,0
1565006372437.5,-66,1,4,0,0,0,0,0
1565006372468.75,-59,1,3,0,0,0,0,0
1565006372500,-59,2,4,0,0,0,0,0
1565006372531.25,-60,2,7,0,0,0,0,0
1565006372562.5,-57,1,4,0,0,0,0,0
1565006372593.75,-72,-1,-7,0,0,0,0,0
1565006372625,-70,-2,-7,0,0,0,0,0
1565006372656.25,-59,2,-3,0,0,0,0,0
1565006372687.5,-65,1,1,0,0,0,0,0
1565006372718.75,-63,0,5,0,0,0,0,0
1565006372750,-61,1,3,0,0,0,0,0
1565006372781.25,-62,1,4,0,0,0,0,0
1565006372812.5,-61,1,4,0,0,0,0,0
1565006372843.75,-62,0,2,0,0,0,0,0
1565006372875,-69,0,-8,0,0,0,0,0
1565006372906.25,-62,0,-7,0,0,0,0,0
1565006372937.5,-64,0,0,0,0,0,0,0
1565006372968.75,-64,1,4,0,0,0,0,0
1565006373000,-61,0,5,0,0,0,0,0
1565006373031.25,-63,0,4,0,0,0,0,0
1565006373062.5,-61,1,4,0,0,0,0,0
1565006373093.75,-61,0,2,0,0,0,0,0
1565006373125,-68,0,-6,0,0,0,0,0
1565006373156.25,-64,0,-6,0,0,0,0,0
1565006373187.5,-63,0,-1,0,0,0,0,0
1565006373218.75,-65,1,2,0,0,0,0,0
1565006373250,-61,0,5,0,0,0,0,0
1565006373281.25,-63,0,3,0,0,0,0,0
1565006373312.5,-62,1,3,0,0,0,0,0
1565006373343.75,-62,0,2,0,0,0,0,0
1565006373375,-66,0,-5,0,0,0,0,0
1565006373406.25,-64,1,-4,0,0,0,0,0
1565006373437.5,-63,1,0,0,0,0,0,0
1565006373468.75,-61,0,5,0,0,0,0,0
1565006373500,-63,-1,5,0,0,0,0,0
1565006373531.25,-62,1,3,0,0,0,0,0
1565006373562.5,-62,0,2,0,0,0,0,0
1565006373593.75,-65,0,-5,0,0,0,0,0
1565006373625,-65,1,-6,0,0,0,0,0
1565006373656.25,-63,1,0,0,0,0,0,0
1565006373687.5,-63,0,3,0,0,0,0,0
1565006373718.75,-62,0,4,0,0,0,0,0
1565006373750,-62,0,4,0,0,0,0,0
1565006373781.25,-62,0,3,0,0,0,0,0
1565006373812.5,-62,0,2,0,0,0,0,0
1565006373843.75,-65,0,-4,0,0,0,0,0
1565006373875,-64,0,-5,0,0,0,0,0
1565006373906.25,-64,0,-1,0,0,0,0,0
1565006373937.5,-63,0,2,0,0,0,0,0
1565006373968.75,-62,0,5,0,0,0,0,0
1565006374000,-62,0,4,0,0,0,0,0
1565006374031.25,-62,1,2,0,0,0,0,0
1565006374062.5,-64,0,-2,0,0,0,0,0
1565006374093.75,-65,0,-4,0,0,0,0,0
1565006374125,-63,0,-1,0,0,0,0,0
1565006374156.25,-63,0,1,0,0,0,0,0
1565006374187.5,-63,0,3,0,0,0,0,0
1565006374218.75,-62,0,4,0,0,0,0,0
1565006374250,-63,0,2,0,0,0,0,0
1565006374281.25,-63,0,2,0,0,0,0,0
1565006374312.5,-63,0,1,0,0,0,0,0
1565006374343.75,-64,0,0,0,0,0,0,0
1565006374375,-64,0,-1,0,0,0,0,0
1565006374406.25,-63,0,1,0,0,0,0,0
1565006374437.5,-63,0,3,0,0,0,0,0
1565006374468.75,-62,0,4,0,0,0,0,0
1565006374500,-63,0,3,0,0,0,0,0
1565006374531.25,-63,0,3,0,0,0,0,0
1565006374562.5,-63,0,1,0,0,0,0,0
1565006374593.75,-64,0,0,0,0,0,0,0
1565006374625,-63,0,0,0,0,0,0,0
1565006374656.25,-62,0,3,0,0,0,0,0
1565006374687.5,-64,0,3,0,0,0,0,0
1565006374718.75,-62,0,3,0,0,0,0,0
1565006374750,-63,0,3,0,0,0,0,0
1565006374781.25,-63,0,3,0,0,0,0,0
1565006374812.5,-63,0,3,0,0,0,0,0
1565006374843.75,-63,0,4,0,0,0,0,0
1565006374875,-63,0,4,0,0,0,0,0
1565006374906.25,-63,0,4,0,0,0,0,0
1565006374937.5,-63,0,4,0,0,0,0,0
1565006374968.75,-63,0,4,0,0,0,0,0
1565006375000,-63,0,4,0,0,0,0,0
1565006375031.25,-63,0,4,0,0,0,0,0
1565006375062.5,-63,0,4,0,0,0,0,0
1565006375093.75,-62,0,5,0,0,0,0,0
1565006375125,-63,-1,5,0,0,0,0,0
1565006375156.25,-63,0,5,0,0,0,0,0
1565006375187.5,-63,0,5,0,0,0,0,0
1565006375218.75,-63,0,5,0,0,0,0,0
1565006375250,-63,0,5,0,0,0,0,0
1565006375281.25,-62,0,5,0,0,0,0,0
1565006375312.5,-63,0,5,0,0,0,0,0
1565006375343.75,-63,0,5,0,0,0,0,0
1565006375375,-63,0,5,0,0,0,0,0
1565006375406.25,-63,-1,5,0,0,0,0,0
1565006375437.5,-63,0,6,0,0,0,0,0
1565006375468.75,-63,0,6,0,0,0,0,0
1565006375500,-62,0,6,0,0,0,0,0
1565006375531.25,-62,0,6,0,0,0,0,0
1565006375562.5,-63,0,6,0,0,0,0,0
1565006375593.75,-63,0,6,0,0,0,0,0
1565006375625,-63,0,6,0,0,0,0,0
1565006375656.25,-63,0,6,0,0,0,0,0
1565006375687.5,-63,0,6,0,0,0,0,0
1565006375718.75,-62,0,6,0,0,0,0,0
1565006375750,-63,0,6,0,0,0,0,0
1565006375781.25,-63,0,6,0,0,0,0,0
1565006375812.5,-62,0,6,0,0,0,0,0
1565006375843.75,-63,0,6,0,0,0,0,0
1565006375875,-63,0,6,0,0,0,0,0
1565006375906.25,-63,-1,7,0,0,0,0,0
1565006375937.5,-63,0,6,0,0,0,0,0
1565006375968.75,-62,0,7,0,0,0,0,0
1565006376000,-62,0,7,0,0,0,0,0
1565006376031.25,-62,-1,8,0,0,0,0,0
1565006376062.5,-62,0,7,0,0,0,0,0
1565006376093.75,-62,0,7,0,0,0,0,0
1565006376125,-62,0,8,0,0,0,0,0
1565006376156.25,-62,0,8,0,0,0,0,0
1565006376187.5,-62,-1,8,0,0,0,0,0
1565006376218.75,-62,-1,7,0,0,0,0,0
1565006376250,-63,0,7,0,0,0,0,0
1565006376281.25,-62,0,8,0,0,0,0,0
1565006376312.5,-62,0,8,0,0,0,0,0
1565006376343.75,-62,0,8,0,0,0,0,0
1565006376375,-62,-1,8,0,0,0,0,0
1565006376406.25,-62,0,8,0,0,0,0,0
1565006376437.5,-62,0,8,0,0,0,0,0
1565006376468.75,-62,0,8,0,0,0,0,0
1565006376500,-62,0,8,0,0,0,0,0
1565006376531.25,-62,-1,9,0,0,0,0,0
1565006376562.5,-62,0,8,0,0,0,0,0
1565006376593.75,-62,0,8,0,0,0,0,0
1565006376625,-63,0,8,0,0,0,0,0
1565006376656.25,-62,0,8,0,0,0,0,0
1565006376687.5,-62,0,8,0,0,0,0,0
1565006376718.75,-62,-1,9,0,0,0,0,0
1565006376750,-62,-1,8,0,0,0,0,0
1565006376781.25,-62,-1,9,0,0,0,0,0
1565006376812.5,-62,-1,9,0,0,0,0,0
1565006376843.75,-62,0,9,0,0,0,0,0
1565006376875,-62,0,9,0,0,0,0,0
1565006376906.25,-62,0,9,0,0,0,0,0
1565006376937.5,-62,0,9,0,0,0,0,0
1565006376968.75,-62,-1,9,0,0,0,0,0
1565006377000,-62,0,9,0,0,0,0,0
1565006377031.25,-62,0,8,0,0,0,0,0
1565006377062.5,-62,-1,9,0,0,0,0,0
1565006377093.75,-62,-1,9,0,0,0,0,0
1565006377125,-62,-1,9,0,0,0,0,0
1565006377156.25,-62,0,9,0,0,0,0,0
1565006377187.5,-62,0,9,0,0,0,0,0
1565006377218.75,-62,0,9,0,0,0,0,0
1565006377250,-62,0,8,0,0,0,0,0
1565006377281.25,-62,0,8,0,0,0,0,0
1565006377312.5,-62,0,8,0,0,0,0,0
1565006377343.75,-62,0,8,0,0,0,0,0
1565006377375,-62,0,8,0,0,0,0,0
1565006377406.25,-62,0,8,0,0,0,0,0
1565006377437.5,-63,-1,8,0,0,0,0,0
1565006377468.75,-62,-1,8,0,0,0,0,0
1565006377500,-62,0,8,0,0,0,0,0
1565006377531.25,-62,0,8,0,0,0,0,0
1565006377562.5,-62,-1,8,0,0,0,0,0
1565006377593.75,-62,0,8,0,0,0,0,0
1565006377625,-62,0,8,0,0,0,0,0
1565006377656.25,-62,0,8,0,0,0,0,0
1565006377687.5,-62,-1,8,0,0,0,0,0
1565006377718.75,-62,0,8,0,0,0,0,0
1565006377750,-62,-1,8,0,0,0,0,0
1565006377781.25,-62,0,8,0,0,0,0,0
1565006377812.5,-62,-1,8,0,0,0,0,0
1565006377843.75,-62,0,8,0,0,0,0,0
1565006377875,-62,-1,8,0,0,0,0,0
1565006377906.25,-62,-1,8,0,0,0,0,0
1565006377937.5,-62,-1,8,0,0,0,0,0
1565006377968.75,-62,-1,8,0,0,0,0,0
1565006378000,-62,0,8,0,0,0,0,0
1565006378031.25,-62,-1,8,0,0,0,0,0
1565006378062.5,-62,0,8,0,0,0,0,0
1565006378093.75,-62,0,8,0,0,0,0,0
1565006378125,-62,0,8,0,0,0,0,0
1565006378156.25,-62,0,8,0,0,0,0,0
1565006378187.5,-62,-1,9,0,0,0,0,0
1565006378218.75,-62,-1,8,0,0,0,0,0
1565006378250,-62,0,8,0,0,0,0,0
1565006378281.25,-62,-1,8,0,0,0,0,0
1565006378312.5,-62,0,8,0,0,0,0,0
1565006378343.75,-62,-1,8,0,0,0,0,0
1565006378375,-62,-1,8,0,0,0,0,0
1565006378406.25,-62,0,9,0,0,0,0,0
1565006378437.5,-62,0,8,0,0,0,0,0
1565006378468.75,-62,-1,8,0,0,0,0,0
1565006378500,-62,-1,8,0,0,0,0,0
1565006378531.25,-62,0,8,0,0,0,0,0
1565006378562.5,-62,0,9,0,0,0,0,0
1565006378593.75,-62,0,8,0,0,0,0,0
1565006378625,-62,0,8,0,0,0,0,0
1565006378656.25,-62,0,9,0,0,0,0,0
1565006378687.5,-62,-1,8,0,0,0,0,0
1565006378718.75,-62,0,9,0,0,0,0,0
1565006378750,-62,-1,9,0,0,0,0,0
1565006378781.25,-62,0,9,0,0,0,0,0
1565006378812.5,-62,0,8,0,0,0,0,0
1565006378843.75,-62,-1,8,0,0,0,0,0
1565006378875,-62,-1,9,0,0,0,0,0
1565006378906.25,-62,-1,8,0,0,0,0,0
1565006378937.5,-62,0,8,0,0,0,0,0
1565006378968.75,-62,0,8,0,0,0,0,0
1565006379000,-62,0,9,0,0,0,0,0
1565006379031.25,-62,0,9,0,0,0,0,0
1565006379062.5,-62,-1,9,0,0,0,0,0
1565006379093.75,-62,0,8,0,0,0,0,0
1565006379125,-62,0,8,0,0,0,0,0
1565006379156.25,-62,0,9,0,0,0,0,0
1565006379187.5,-62,0,9,0,0,0,0,0
1565006379218.75,-62,-1,9,0,0,0,0,0
1565006379250,-62,0,8,0,0,0,0,0
1565006379281.25,-62,0,9,0,0,0,0,0
1565006379312.5,-62,0,9,0,0,0,0,0
1565006379343.75,-62,0,9,0,0,0,0,0
1565006379375,-62,0,9,0,0,0,0,0
1565006379406.25,-62,0,9,0,0,0,0,0
1565006379437.5,-62,-1,9,0,0,0,0,0
1565006379468.75,-62,0,8,0,0,0,0,0
1565006379500,-62,-1,8,0,0,0,0,0
1565006379531.25,-62,-1,8,0,0,0,0,0
1565006379562.5,-62,0,8,0,0,0,0,0
1565006379593.75,-62,-1,9,0,0,0,0,0
1565006379625,-62,0,9,0,0,0,0,0
1565006379656.25,-62,-1,9,0,0,0,0,0
1565006379687.5,-62,0,9,0,0,0,0,0
1565006379718.75,-62,0,9,0,0,0,0,0
1565006379750,-62,0,9,0,0,0,0,0
1565006379781.25,-62,0,9,0,0,0,0,0
1565006379812.5,-62,0,9,0,0,0,0,0
1565006379843.75,-62,0,9,0,0,0,0,0
1565006379875,-62,0,9,0,0,0,0,0
1565006379906.25,-62,-1,9,0,0,0,0,0
1565006379937.5,-62,-1,9,0,0,0,0,0
1565006379968.75,-62,-1,9,0,0,0,0,0
1565006380000,-62,0,9,0,0,0,0,0
1565006380031.25,-62,0,9,0,0,0,0,0
1565006380062.5,-62,-1,9,0,0,0,0,0
1565006380093.75,-62,0,9,0,0,0,0,0
1565006380125,-62,-1,9,0,0,0,0,0
1565006380156.25,-62,-1,9,0,0,0,0,0
1565006380187.5,-62,-1,9,0,0,0,0,0
1565006380218.75,-62,0,9,0,0,0,0,0
1565006380250,-62,-1,9,0,0,0,0,0
1565006380281.25,-62,0,9,0,0,0,0,0
1565006380312.5,-62,0,9,0,0,0,0,0
1565006380343.75,-62,-1,9,0,0,0,0,0
1565006380375,-62,0,9,0,0,0,0,0
1565006380406.25,-62,-1,9,0,0,0,0,0
1565006380437.5,-62,0,9,0,0,0,0,0
1565006380468.75,-62,0,9,0,0,0,0,0
1565006380500,-62,0,10,0,0,0,0,0
1565006380531.25,-62,0,10,0,0,0,0,0
1565006380562.5,-62,-1,10,0,0,0,0,0
1565006380593.75,-62,-1,10,0,0,0,0,0
1565006380625,-62,0,10,0,0,0,0,0
1565006380656.25,-62,0,10,0,0,0,0,0
1565006380687.5,-62,-1,10,0,0,0,0,0
1565006380718.75,-62,0,10,0,0,0,0,0
1565006380750,-62,0,9,0,0,0,0,0
1565006380781.25,-62,0,9,0,0,0,0,0
1565006380812.5,-62,-1,10,0,0,0,0,0
1565006380843.75,-62,-1,10,0,0,0,0,0
1565006380875,-62,-1,9,0,0,0,0,0
1565006380906.25,-62,-1,9,0,0,0,0,0
1565006380937.5,-62,-1,10,0,0,0,0,0
1565006380968.75,-63,0,9,0,0,0,0,0
1565006381000,-61,-2,11,0,0,0,0,0
1565006381031.25,-62,0,9,0,0,0,0,0
1565006381062.5,-62,-1,10,0,0,0,0,0
1565006381093.75,-62,0,10,0,0,0,0,0
1565006381125,-62,-1,10,0,0,0,0,0
1565006381156.25,-62,0,10,0,0,0,0,0
1565006381187.5,-62,-1,10,0,0,0,0,0
1565006381218.75,-62,0,9,0,0,0,0,0
1565006381250,-62,-1,10,0,0,0,0,0
1565006381281.25,-62,0,9,0,0,0,0,0
1565006381312.5,-62,0,10,0,0,0,0,0
1565006381343.75,-62,0,9,0,0,0,0,0
1565006381375,-62,-1,9,0,0,0,0,0
1565006381406.25,-62,0,9,0,0,0,0,0
1565006381437.5,-62,0,10,0,0,0,0,0
1565006381468.75,-62,-1,10,0,0,0,0,0
1565006381500,-62,-1,10,0,0,0,0,0
1565006381531.25,-62,-1,9,0,0,0,0,0
1565006381562.5,-62,-1,10,0,0,0,0,0
1565006381593.75,-62,0,10,0,0,0,0,0
1565006381625,-61,0,10,0,0,0,0,0
1565006381656.25,-62,0,10,0,0,0,0,0
1565006381687.5,-62,0,10,0,0,0,0,0
1565006381718.75,-62,0,10,0,0,0,0,0
1565006381750,-62,-1,10,0,0,0,0,0
1565006381781.25,-62,0,10,0,0,0,0,0
1565006381812.5,-62,-1,10,0,0,0,0,0
1565006381843.75,-62,-1,9,0,0,0,0,0
1565006381875,-62,-1,10,0,0,0,0,0
1565006381906.25,-62,0,10,0,0,0,0,0
1565006381937.5,-62,-1,10,0,0,0,0,0
1565006381968.75,-62,-1,10,0,0,0,0,0
1565006382000,-62,-1,10,0,0,0,0,0
1565006382031.25,-62,-1,10,0,0,0,0,0
1565006382062.5,-62,0,9,0,0,0,0,0
1565006382093.75,-62,0,10,0,0,0,0,0
1565006382125,-62,-1,10,0,0,0,0,0
1565006382156.25,-62,0,11,0,0,0,0,0
1565006382187.5,-62,-1,11,0,0,0,0,0
1565006382218.75,-62,-1,11,0,0,0,0,0
1565006382250,-62,0,11,0,0,0,0,0
1565006382281.25,-61,-1,11,0,0,0,0,0
1565006382312.5,-62,-1,11,0,0,0,0,0
1565006382343.75,-62,-1,11,0,0,0,0,0
1565006382375,-62,-1,11,0,0,0,0,0
1565006382406.25,-62,-1,11,0,0,0,0,0
1565006382437.5,-62,-1,11,0,0,0,0,0
1565006382468.75,-62,0,10,0,0,0,0,0
1565006382500,-62,-1,10,0,0,0,0,0
1565006382531.25,-62,-1,11,0,0,0,0,0
1565006382562.5,-62,-1,11,0,0,0,0,0
1565006382593.75,-64,-1,10,0,0,0,0,0
1565006382625,-65,-1,8,0,0,0,0,0
1565006382656.25,-99,-8,9,0,0,0,0,0
1565006382687.5,-116,-15,3,0,0,0,0,0
1565006382718.75,-97,-17,16,0,0,0,0,0
1565006382750,-68,-30,35,0,0,0,0,0
1565006382781.25,-46,-17,47,0,0,0,0,0
1565006382812.5,-46,-9,30,0,0,0,0,0
1565006382843.75,-15,18,17,0,0,0,0,0
1565006382875,7,34,7,0,0,0,0,0
1565006382906.25,13,57,-68,0,0,0,0,0
1565006382937.5,-13,37,-104,0,0,0,0,0
1565006382968.75,-19,5,-50,0,0,0,0,0
1565006383000,-73,55,-15,0,0,0,0,0
1565006383031.25,-110,40,-15,0,0,0,0,0
1565006383062.5,-128,13,28,0,0,0,0,0
1565006383093.75,-33,-31,27,0,0,0,0,0
1565006383125,-7,-83,86,0,0,0,0,0
1565006383156.25,-85,-74,110,0,0,0,0,0
1565006383187.5,-26,-8,25,0,0,0,0,0
1565006383218.75,-6,20,-63,0,0,0,0,0
1565006383250,-65,63,-128,0,0,0,0,0
1565006383281.25,-8,1,-97,0,0,0,0,0
1565006383312.5,-99,53,-64,0,0,0,0,0
1565006383343.75,-56,47,-80,0,0,0,0,0
1565006383375,-72,50,-14,0,0,0,0,0
1565006383406.25,-111,37,33,0,0,0,0,0
1565006383437.5,37,-91,84,0,0,0,0,0
1565006383468.75,0,-29,76,0,0,0,0,0
1565006383500,-96,-70,85,0,0,0,0,0
1565006383531.25,-65,-2,29,0,0,0,0,0
1565006383562.5,-5,85,-87,0,0,0,0,0
1565006383593.75,-4,30,-101,0,0,0,0,0
1565006383625,-14,-25,-47,0,0,0,0,0
1565006383656.25,-67,58,-71,0,0,0,0,0
1565006383687.5,-62,55,-68,0,0,0,0,0
1565006383718.75,-128,51,31,0,0,0,0,0
1565006383750,-120,47,60,0,0,0,0,0
1565006383781.25,32,-12,91,0,0,0,0,0
1565006383812.5,-88,-107,61,0,0,0,0,0
1565006383843.75,-50,-18,42,0,0,0,0,0
1565006383875,14,12,-49,0,0,0,0,0
1565006383906.25,-19,63,-128,0,0,0,0,0
1565006383937.5,-4,-13,-114,0,0,0,0,0
1565006383968.75,-68,73,-91,0,0,0,0,0
1565006384000,-58,63,-62,0,0,0,0,0
1565006384031.25,-100,59,-8,0,0,0,0,0
1565006384062.5,-128,63,71,0,0,0,0,0
1565006384093.75,50,-43,84,0,0,0,0,0
1565006384125,-31,-93,51,0,0,0,0,0
1565006384156.25,-83,-35,37,0,0,0,0,0
1565006384187.5,2,78,-128,0,0,0,0,0
1565006384218.75,-14,62,-128,0,0,0,0,0
1565006384250,-32,-4,-19,0,0,0,0,0
1565006384281.25,-103,66,-96,0,0,0,0,0
1565006384312.5,-87,59,-45,0,0,0,0,0
1565006384343.75,-99,60,16,0,0,0,0,0
1565006384375,55,-46,64,0,0,0,0,0
1565006384406.25,44,-3,62,0,0,0,0,0
1565006384437.5,-104,-73,65,0,0,0,0,0
1565006384468.75,-84,-38,47,0,0,0,0,0
1565006384500,-13,47,-91,0,0,0,0,0
1565006384531.25,-30,71,-128,0,0,0,0,0
1565006384562.5,-11,-18,-44,0,0,0,0,0
1565006384593.75,-66,31,-38,0,0,0,0,0
1565006384625,-91,48,-72,0,0,0,0,0
1565006384656.25,-85,51,-22,0,0,0,0,0
1565006384687.5,-93,37,44,0,0,0,0,0
1565006384718.75,58,-85,80,0,0,0,0,0
1565006384750,-89,-95,31,0,0,0,0,0
1565006384781.25,-73,-65,53,0,0,0,0,0
1565006384812.5,-22,46,-83,0,0,0,0,0
1565006384843.75,-24,33,-128,0,0,0,0,0
1565006384875,-24,-21,-64,0,0,0,0,0
1565006384906.25,-79,48,-95,0,0,0,0,0
1565006384937.5,-50,35,-97,0,0,0,0,0
1565006384968.75,-48,34,-32,0,0,0,0,0
1565006385000,-37,32,-36,0,0,0,0,0
1565006385031.25,-56,-50,11,0,0,0,0,0
1565006385062.5,-47,-60,43,0,0,0,0,0
1565006385093.75,-30,-40,63,0,0,0,0,0
1565006385125,-56,-16,55,0,0,0,0,0
1565006385156.25,-92,3,41,0,0,0,0,0
1565006385187.5,-52,6,35,0,0,0,0,0
1565006385218.75,-35,6,24,0,0,0,0,0
1565006385250,-46,9,12,0,0,0,0,0
1565006385281.25,-65,7,-9,0,0,0,0,0
1565006385312.5,-74,6,-15,0,0,0,0,0
1565006385343.75,-89,0,-7,0,0,0,0,0
1565006385375,-72,1,-4,0,0,0,0,0
1565006385406.25,-59,-2,-12,0,0,0,0,0
1565006385437.5,-60,0,-9,0,0,0,0,0
1565006385468.75,-64,-2,-8,0,0,0,0,0
1565006385500,-60,-5,-2,0,0,0,0,0
1565006385531.25,-57,-6,-6,0,0,0,0,0
1565006385562.5,-60,2,-17,0,0,0,0,0
1565006385593.75,-75,1,-21,0,0,0,0,0
1565006385625,-74,-5,-9,0,0,0,0,0
1565006385656.25,-66,-7,-5,0,0,0,0,0
1565006385687.5,-60,-2,5,0,0,0,0,0
1565006385718.75,-43,5,10,0,0,0,0,0
1565006385750,-73,5,-4,0,0,0,0,0
1565006385781.25,-58,3,-4,0,0,0,0,0
1565006385812.5,-55,3,-6,0,0,0,0,0
1565006385843.75,-65,3,-9,0,0,0,0,0
1565006385875,-63,1,-8,0,0,0,0,0
1565006385906.25,-70,1,-13,0,0,0,0,0
1565006385937.5,-63,-3,-16,0,0,0,0,0
1565006385968.75,-64,1,-13,0,0,0,0,0
1565006386000,-66,-1,0,0,0,0,0,0
1565006386031.25,-65,-1,4,0,0,0,0,0
1565006386062.5,-60,1,-1,0,0,0,0,0
1565006386093.75,-62,2,-1,0,0,0,0,0
1565006386125,-62,1,-1,0,0,0,0,0
1565006386156.25,-70,-1,-10,0,0,0,0,0
1565006386187.5,-65,-2,-12,0,0,0,0,0
1565006386218.75,-60,1,-4,0,0,0,0,0
1565006386250,-63,-1,1,0,0,0,0,0
1565006386281.25,-64,0,-1,0,0,0,0,0
1565006386312.5,-62,1,0,0,0,0,0,0
1565006386343.75,-63,0,2,0,0,0,0,0
1565006386375,-62,0,4,0,0,0,0,0
1565006386406.25,-67,-2,1,0,0,0,0,0
1565006386437.5,-68,-3,0,0,0,0,0,0
1565006386468.75,-67,-9,11,0,0,0,0,0
1565006386500,-70,-9,12,0,0,0,0,0
1565006386531.25,-61,-5,21,0,0,0,0,0
1565006386562.5,-45,-2,23,0,0,0,0,0
1565006386593.75,-28,-4,41,0,0,0,0,0
1565006386625,-30,-6,46,0,0,0,0,0
1565006386656.25,-52,-11,47,0,0,0,0,0
1565006386687.5,-77,-15,35,0,0,0,0,0
1565006386718.75,-62,-11,22,0,0,0,0,0
1565006386750,-46,-3,28,0,0,0,0,0
1565006386781.25,-52,-3,31,0,0,0,0,0
1565006386812.5,-61,-7,33,0,0,0,0,0
1565006386843.75,-55,-3,30,0,0,0,0,0
1565006386875,-50,-3,40,0,0,0,0,0
1565006386906.25,-49,-5,40,0,0,0,0,0
1565006386937.5,-44,-4,41,0,0,0,0,0
1565006386968.75,-47,-5,39,0,0,0,0,0
1565006387000,-43,-4,43,0,0,0,0,0
1565006387031.25,-48,-4,42,0,0,0,0,0
1565006387062.5,-49,-4,39,0,0,0,0,0
1565006387093.75,-46,-4,39,0,0,0,0,0
1565006387125,-50,-5,34,0,0,0,0,0
1565006387156.25,-58,-4,29,0,0,0,0,0
1565006387187.5,-62,-3,23,0,0,0,0,0
1565006387218.75,-57,-2,29,0,0,0,0,0
1565006387250,-52,-2,32,0,0,0,0,0
1565006387281.25,-54,-2,31,0,0,0,0,0
1565006387312.5,-54,-3,35,0,0,0,0,0
1565006387343.75,-42,-7,49,0,0,0,0,0
1565006387375,-40,-9,53,0,0,0,0,0
1565006387406.25,-40,-12,50,0,0,0,0,0
1565006387437.5,-41,-13,46,0,0,0,0,0
1565006387468.75,-48,-12,24,0,0,0,0,0
1565006387500,-54,-10,14,0,0,0,0,0
1565006387531.25,-80,-7,-29,0,0,0,0,0
1565006387562.5,-75,-2,-33,0,0,0,0,0
1565006387593.75,-71,3,-37,0,0,0,0,0
1565006387625,-65,4,-33,0,0,0,0,0
1565006387656.25,-76,6,-35,0,0,0,0,0
1565006387687.5,-70,4,-16,0,0,0,0,0
1565006387718.75,-65,-1,1,0,0,0,0,0
1565006387750,-59,-1,10,0,0,0,0,0
1565006387781.25,-55,-8,23,0,0,0,0,0
1565006387812.5,-52,-7,23,0,0,0,0,0
1565006387843.75,-59,-9,18,0,0,0,0,0
1565006387875,-57,-7,18,0,0,0,0,0
1565006387906.25,-61,-3,15,0,0,0,0,0
1565006387937.5,-62,-3,12,0,0,0,0,0
1565006387968.75,-64,-4,12,0,0,0,0,0
1565006388000,-60,-5,16,0,0,0,0,0
1565006388031.25,-59,-5,18,0,0,0,0,0
1565006388062.5,-60,-4,17,0,0,0,0,0
1565006388093.75,-61,-4,16,0,0,0,0,0
1565006388125,-61,-4,15,0,0,0,0,0
1565006388156.25,-62,-4,14,0,0,0,0,0
1565006388187.5,-62,-4,15,0,0,0,0,0
1565006388218.75,-61,-4,16,0,0,0,0,0
1565006388250,-59,-5,20,0,0,0,0,0
1565006388281.25,-57,-5,22,0,0,0,0,0
1565006388312.5,-57,-4,22,0,0,0,0,0
1565006388343.75,-58,-4,21,0,0,0,0,0
1565006388375,-62,-4,16,0,0,0,0,0
1565006388406.25,-61,-3,16,0,0,0,0,0
1565006388437.5,-62,-3,16,0,0,0,0,0
1565006388468.75,-61,-4,18,0,0,0,0,0
1565006388500,-60,-4,19,0,0,0,0,0
1565006388531.25,-60,-4,21,0,0,0,0,0
1565006388562.5,-57,-6,23,0,0,0,0,0
1565006388593.75,-57,-5,24,0,0,0,0,0
1565006388625,-56,-5,25,0,0,0,0,0
1565006388656.25,-57,-4,25,0,0,0,0,0
1565006388687.5,-57,-4,25,0,0,0,0,0
1565006388718.75,-57,-3,24,0,0,0,0,0
1565006388750,-56,-3,25,0,0,0,0,0
1565006388781.25,-57,-3,23,0,0,0,0,0
1565006388812.5,-58,-3,24,0,0,0,0,0
1565006388843.75,-58,-4,21,0,0,0,0,0
1565006388875,-60,-1,22,0,0,0,0,0
1565006388906.25,-59,-3,19,0,0,0,0,0
1565006388937.5,-57,1,18,0,0,0,0,0
1565006388968.75,-52,8,14,0,0,0,0,0
1565006389000,-73,-15,17,0,0,0,0,0
1565006389031.25,-66,-12,21,0,0,0,0,0
1565006389062.5,-57,-8,21,0,0,0,0,0
1565006389093.75,-57,-4,22,0,0,0,0,0
1565006389125,-58,-4,21,0,0,0,0,0
1565006389156.25,-60,-3,18,0,0,0,0,0
1565006389187.5,-61,-4,16,0,0,0,0,0
1565006389218.75,-60,-3,18,0,0,0,0,0
1565006389250,-52,8,18,0,0,0,0,0
1565006389281.25,-66,-8,15,0,0,0,0,0
1565006389312.5,-62,-6,14,0,0,0,0,0
1565006389343.75,-63,-7,12,0,0,0,0,0
1565006389375,-61,-9,16,0,0,0,0,0
1565006389406.25,-59,-8,19,0,0,0,0,0
1565006389437.5,-57,-5,23,0,0,0,0,0
1565006389468.75,-56,-4,23,0,0,0,0,0
1565006389500,-60,-4,20,0,0,0,0,0
1565006389531.25,-61,-5,19,0,0,0,0,0
1565006389562.5,-60,-4,20,0,0,0,0,0
1565006389593.75,-60,-4,20,0,0,0,0,0
1565006389625,-58,-5,23,0,0,0,0,0
1565006389656.25,-57,-5,25,0,0,0,0,0
1565006389687.5,-56,-5,26,0,0,0,0,0
1565006389718.75,-55,-5,28,0,0,0,0,0
1565006389750,-55,-4,27,0,0,0,0,0
1565006389781.25,-57,-4,26,0,0,0,0,0
1565006389812.5,-59,-4,23,0,0,0,0,0
1565006389843.75,-69,-6,16,0,0,0,0,0
1565006389875,-63,-11,22,0,0,0,0,0
1565006389906.25,-59,-10,24,0,0,0,0,0
1565006389937.5,-59,-12,20,0,0,0,0,0
1565006389968.75,-62,-11,18,0,0,0,0,0
1565006390000,-70,-10,19,0,0,0,0,0
1565006390031.25,-56,-10,29,0,0,0,0,0
1565006390062.5,-44,-14,43,0,0,0,0,0
1565006390093.75,-37,-7,56,0,0,0,0,0
1565006390125,-32,-4,58,0,0,0,0,0
1565006390156.25,-31,0,54,0,0,0,0,0
1565006390187.5,-33,3,53,0,0,0,0,0
1565006390218.75,-30,6,50,0,0,0,0,0
1565006390250,-35,9,50,0,0,0,0,0
1565006390281.25,-40,10,50,0,0,0,0,0
1565006390312.5,-36,9,48,0,0,0,0,0
1565006390343.75,-39,9,53,0,0,0,0,0
1565006390375,-41,10,62,0,0,0,0,0
1565006390406.25,-39,8,52,0,0,0,0,0
1565006390437.5,-38,10,51,0,0,0,0,0
1565006390468.75,-39,12,45,0,0,0,0,0
1565006390500,-41,11,49,0,0,0,0,0
1565006390531.25,-42,8,51,0,0,0,0,0
1565006390562.5,-53,2,54,0,0,0,0,0
1565006390593.75,-52,1,54,0,0,0,0,0
1565006390625,-40,7,51,0,0,0,0,0
1565006390656.25,-32,11,53,0,0,0,0,0
1565006390687.5,-18,14,56,0,0,0,0,0
1565006390718.75,-14,15,56,0,0,0,0,0
1565006390750,-12,18,53,0,0,0,0,0
1565006390781.25,-12,22,49,0,0,0,0,0
1565006390812.5,-15,29,45,0,0,0,0,0
1565006390843.75,-19,33,44,0,0,0,0,0
1565006390875,-27,38,40,0,0,0,0,0
1565006390906.25,-29,40,40,0,0,0,0,0
1565006390937.5,-38,28,34,0,0,0,0,0
1565006390968.75,-38,24,35,0,0,0,0,0
1565006391000,-44,18,35,0,0,0,0,0
1565006391031.25,-49,19,30,0,0,0,0,0
1565006391062.5,-62,16,27,0,0,0,0,0
1565006391093.75,-64,16,30,0,0,0,0,0
1565006391125,-63,16,24,0,0,0,0,0
1565006391156.25,-64,13,18,0,0,0,0,0
1565006391187.5,-61,13,18,0,0,0,0,0
1565006391218.75,-60,11,18,0,0,0,0,0
1565006391250,-60,11,19,0,0,0,0,0
1565006391281.25,-59,12,21,0,0,0,0,0
1565006391312.5,-58,13,24,0,0,0,0,0
1565006391343.75,-56,12,25,0,0,0,0,0
1565006391375,-57,12,25,0,0,0,0,0
1565006391406.25,-56,12,24,0,0,0,0,0
1565006391437.5,-55,13,24,0,0,0,0,0
1565006391468.75,-56,12,25,0,0,0,0,0
1565006391500,-56,12,24,0,0,0,0,0
1565006391531.25,-57,12,23,0,0,0,0,0
1565006391562.5,-58,11,23,0,0,0,0,0
1565006391593.75,-57,11,24,0,0,0,0,0
1565006391625,-58,11,24,0,0,0,0,0
1565006391656.25,-57,11,24,0,0,0,0,0
1565006391687.5,-56,11,24,0,0,0,0,0
1565006391718.75,-57,11,24,0,0,0,0,0
1565006391750,-57,11,24,0,0,0,0,0
1565006391781.25,-56,12,23,0,0,0,0,0
1565006391812.5,-56,12,23,0,0,0,0,0
1565006391843.75,-57,12,23,0,0,0,0,0
1565006391875,-57,13,21,0,0,0,0,0
1565006391906.25,-57,12,21,0,0,0,0,0
1565006391937.5,-57,13,20,0,0,0,0,0
1565006391968.75,-58,13,20,0,0,0,0,0
1565006392000,-57,12,20,0,0,0,0,0
1565006392031.25,-57,12,21,0,0,0,0,0
1565006392062.5,-56,12,22,0,0,0,0,0
1565006392093.75,-56,12,22,0,0,0,0,0
1565006392125,-57,11,23,0,0,0,0,0
1565006392156.25,-57,10,24,0,0,0,0,0
1565006392187.5,-58,8,25,0,0,0,0,0
1565006392218.75,-57,8,25,0,0,0,0,0
1565006392250,-58,7,27,0,0,0,0,0
1565006392281.25,-58,7,26,0,0,0,0,0
1565006392312.5,-58,7,27,0,0,0,0,0
1565006392343.75,-58,7,26,0,0,0,0,0
1565006392375,-57,7,26,0,0,0,0,0
1565006392406.25,-57,8,25,0,0,0,0,0
1565006392437.5,-57,8,25,0,0,0,0,0
1565006392468.75,-58,8,23,0,0,0,0,0
1565006392500,-58,8,23,0,0,0,0,0
1565006392531.25,-58,10,22,0,0,0,0,0
1565006392562.5,-58,10,22,0,0,0,0,0
1565006392593.75,-58,10,21,0,0,0,0,0
1565006392625,-58,10,21,0,0,0,0,0
1565006392656.25,-57,11,21,0,0,0,0,0
1565006392687.5,-56,11,20,0,0,0,0,0
1565006392718.75,-56,11,20,0,0,0,0,0
1565006392750,-57,10,20,0,0,0,0,0
1565006392781.25,-60,9,20,0,0,0,0,0
1565006392812.5,-61,8,19,0,0,0,0,0
1565006392843.75,-61,9,20,0,0,0,0,0
1565006392875,-60,9,20,0,0,0,0,0
1565006392906.25,-58,9,21,0,0,0,0,0
1565006392937.5,-57,10,21,0,0,0,0,0
1565006392968.75,-57,11,21,0,0,0,0,0
1565006393000,-56,11,20,0,0,0,0,0
1565006393031.25,-57,11,19,0,0,0,0,0
1565006393062.5,-59,9,18,0,0,0,0,0
1565006393093.75,-58,9,18,0,0,0,0,0
1565006393125,-58,10,19,0,0,0,0,0
1565006393156.25,-60,11,18,0,0,0,0,0
1565006393187.5,-61,11,17,0,0,0,0,0
1565006393218.75,-59,11,18,0,0,0,0,0
1565006393250,-57,16,21,0,0,0,0,0
1565006393281.25,-58,17,22,0,0,0,0,0
1565006393312.5,-58,21,25,0,0,0,0,0
1565006393343.75,-57,21,25,0,0,0,0,0
1565006393375,-52,17,21,0,0,0,0,0
1565006393406.25,-56,24,15,0,0,0,0,0
1565006393437.5,-60,19,24,0,0,0,0,0
1565006393468.75,-59,16,29,0,0,0,0,0
1565006393500,-61,9,21,0,0,0,0,0
1565006393531.25,-59,7,17,0,0,0,0,0
1565006393562.5,-57,-1,16,0,0,0,0,0
1565006393593.75,-58,-6,12,0,0,0,0,0
1565006393625,-65,-11,6,0,0,0,0,0
1565006393656.25,-63,-12,5,0,0,0,0,0
1565006393687.5,-67,-11,3,0,0,0,0,0
1565006393718.75,-70,-9,3,0,0,0,0,0
1565006393750,-67,-4,4,0,0,0,0,0
1565006393781.25,-63,9,4,0,0,0,0,0
1565006393812.5,-59,11,3,0,0,0,0,0
1565006393843.75,-64,15,1,0,0,0,0,0
1565006393875,-67,15,1,0,0,0,0,0
1565006393906.25,-72,13,-2,0,0,0,0,0
1565006393937.5,-67,11,2,0,0,0,0,0
1565006393968.75,-62,8,4,0,0,0,0,0
1565006394000,-59,7,3,0,0,0,0,0
1565006394031.25,-63,3,7,0,0,0,0,0
1565006394062.5,-61,2,10,0,0,0,0,0
1565006394093.75,-61,-5,22,0,0,0,0,0
1565006394125,-49,-6,33,0,0,0,0,0
1565006394156.25,-46,-5,40,0,0,0,0,0
1565006394187.5,-48,-5,38,0,0,0,0,0
1565006394218.75,-40,-3,43,0,0,0,0,0
1565006394250,-41,-3,45,0,0,0,0,0
1565006394281.25,-41,-3,46,0,0,0,0,0
1565006394312.5,-43,-3,43,0,0,0,0,0
1565006394343.75,-18,2,40,0,0,0,0,0
1565006394375,-60,-10,43,0,0,0,0,0
1565006394406.25,-52,-7,35,0,0,0,0,0
1565006394437.5,-56,-4,30,0,0,0,0,0
1565006394468.75,-55,1,28,0,0,0,0,0
1565006394500,-53,0,36,0,0,0,0,0
1565006394531.25,-47,0,40,0,0,0,0,0
1565006394562.5,-45,-1,42,0,0,0,0,0
1565006394593.75,-45,-1,42,0,0,0,0,0
1565006394625,-44,-3,43,0,0,0,0,0
1565006394656.25,-46,-3,42,0,0,0,0,0
1565006394687.5,-48,-3,39,0,0,0,0,0
1565006394718.75,-50,-3,39,0,0,0,0,0
1565006394750,-52,-4,36,0,0,0,0,0
1565006394781.25,-50,-3,36,0,0,0,0,0
1565006394812.5,-65,-11,33,0,0,0,0,0
1565006394843.75,-75,2,34,0,0,0,0,0
1565006394875,-54,-4,32,0,0,0,0,0
1565006394906.25,-53,1,28,0,0,0,0,0
1565006394937.5,-49,0,33,0,0,0,0,0
1565006394968.75,-51,-3,39,0,0,0,0,0
1565006395000,-49,-3,40,0,0,0,0,0
1565006395031.25,-51,-3,37,0,0,0,0,0
1565006395062.5,-52,-3,37,0,0,0,0,0
1565006395093.75,-50,-3,37,0,0,0,0,0
1565006395125,-51,-3,36,0,0,0,0,0
1565006395156.25,-51,-2,36,0,0,0,0,0
1565006395187.5,-50,-2,37,0,0,0,0,0
1565006395218.75,-83,-22,47,0,0,0,0,0
1565006395250,-81,-26,29,0,0,0,0,0
1565006395281.25,-51,-7,32,0,0,0,0,0
1565006395312.5,-55,-3,35,0,0,0,0,0
1565006395343.75,-41,-1,37,0,0,0,0,0
1565006395375,-45,-4,40,0,0,0,0,0
1565006395406.25,-50,-4,43,0,0,0,0,0
1565006395437.5,-45,-4,42,0,0,0,0,0
1565006395468.75,-45,3,42,0,0,0,0,0
1565006395500,-47,1,42,0,0,0,0,0
1565006395531.25,-45,-2,43,0,0,0,0,0
1565006395562.5,-45,1,45,0,0,0,0,0
1565006395593.75,-45,-1,46,0,0,0,0,0
1565006395625,-41,-3,46,0,0,0,0,0
1565006395656.25,-38,-3,47,0,0,0,0,0
1565006395687.5,-36,-5,49,0,0,0,0,0
1565006395718.75,-39,-1,51,0,0,0,0,0
1565006395750,-36,-3,48,0,0,0,0,0
1565006395781.25,-38,-2,48,0,0,0,0,0
1565006395812.5,-38,-2,49,0,0,0,0,0
1565006395843.75,-38,-1,48,0,0,0,0,0
1565006395875,-42,-3,48,0,0,0,0,0
1565006395906.25,-41,-3,48,0,0,0,0,0
1565006395937.5,-41,-1,47,0,0,0,0,0
1565006395968.75,-41,-2,48,0,0,0,0,0
1565006396000,-40,-2,47,0,0,0,0,0
1565006396031.25,-40,-2,47,0,0,0,0,0
1565006396062.5,-40,-3,49,0,0,0,0,0
1565006396093.75,-40,-2,49,0,0,0,0,0
1565006396125,-39,-2,48,0,0,0,0,0
1565006396156.25,-18,67,114,0,0,0,0,0
1565006396187.5,-112,-30,113,0,0,0,0,0
1565006396218.75,-64,-40,33,0,0,0,0,0
1565006396250,-39,7,32,0,0,0,0,0
1565006396281.25,-34,10,43,0,0,0,0,0
1565006396312.5,-40,1,47,0,0,0,0,0
1565006396343.75,-36,-1,53,0,0,0,0,0
1565006396375,-32,-6,60,0,0,0,0,0
1565006396406.25,-36,-9,51,0,0,0,0,0
1565006396437.5,-36,-7,47,0,0,0,0,0
1565006396468.75,-36,-3,48,0,0,0,0,0
1565006396500,-39,-3,49,0,0,0,0,0
1565006396531.25,-42,-3,47,0,0,0,0,0
1565006396562.5,-41,-2,46,0,0,0,0,0
1565006396593.75,-43,-3,48,0,0,0,0,0
1565006396625,-41,-3,48,0,0,0,0,0
1565006396656.25,-39,-2,47,0,0,0,0,0
1565006396687.5,-41,-2,48,0,0,0,0,0
1565006396718.75,-42,-4,49,0,0,0,0,0
1565006396750,-43,-5,48,0,0,0,0,0
1565006396781.25,-44,-5,46,0,0,0,0,0
1565006396812.5,-43,-4,46,0,0,0,0,0
1565006396843.75,-95,124,105,0,0,0,0,0
1565006396875,-61,-16,42,0,0,0,0,0
1565006396906.25,-36,-46,26,0,0,0,0,0
1565006396937.5,-16,18,19,0,0,0,0,0
1565006396968.75,-49,8,59,0,0,0,0,0
1565006397000,-44,-6,53,0,0,0,0,0
1565006397031.25,-29,2,43,0,0,0,0,0
1565006397062.5,-34,-1,49,0,0,0,0,0
1565006397093.75,-35,-10,56,0,0,0,0,0
1565006397125,-33,-8,57,0,0,0,0,0
1565006397156.25,-37,-6,54,0,0,0,0,0
1565006397187.5,-36,-6,47,0,0,0,0,0
1565006397218.75,-42,-5,47,0,0,0,0,0
1565006397250,-40,-6,45,0,0,0,0,0
1565006397281.25,-39,-6,45,0,0,0,0,0
1565006397312.5,-40,-5,50,0,0,0,0,0
1565006397343.75,-39,-5,49,0,0,0,0,0
1565006397375,-40,-4,46,0,0,0,0,0
1565006397406.25,-41,-2,46,0,0,0,0,0
1565006397437.5,-42,-2,47,0,0,0,0,0
1565006397468.75,-42,-4,46,0,0,0,0,0
1565006397500,-41,-2,46,0,0,0,0,0
1565006397531.25,-40,-3,47,0,0,0,0,0
1565006397562.5,-40,-5,46,0,0,0,0,0
1565006397593.75,-48,-8,44,0,0,0,0,0
1565006397625,-46,-4,42,0,0,0,0,0
1565006397656.25,-46,-5,40,0,0,0,0,0
1565006397687.5,-51,-6,42,0,0,0,0,0
1565006397718.75,-46,-3,39,0,0,0,0,0
1565006397750,-47,-4,39,0,0,0,0,0
1565006397781.25,-48,-5,41,0,0,0,0,0
1565006397812.5,-48,-5,41,0,0,0,0,0
1565006397843.75,-47,-4,40,0,0,0,0,0
1565006397875,-46,-4,40,0,0,0,0,0
1565006397906.25,-48,-5,40,0,0,0,0,0
1565006397937.5,-49,-5,39,0,0,0,0,0
1565006397968.75,-48,-4,37,0,0,0,0,0
1565006398000,-48,-5,40,0,0,0,0,0
1565006398031.25,-46,-4,40,0,0,0,0,0
1565006398062.5,-45,-4,40,0,0,0,0,0
1565006398093.75,-47,-5,40,0,0,0,0,0
1565006398125,-48,-5,40,0,0,0,0,0
1565006398156.25,-47,-5,39,0,0,0,0,0
1565006398187.5,-46,-4,40,0,0,0,0,0
1565006398218.75,-48,-4,40,0,0,0,0,0
1565006398250,-49,-3,38,0,0,0,0,0
1565006398281.25,-51,-3,37,0,0,0,0,0
1565006398312.5,-53,-3,36,0,0,0,0,0
1565006398343.75,-51,-2,36,0,0,0,0,0
1565006398375,-51,0,34,0,0,0,0,0
1565006398406.25,-51,0,35,0,0,0,0,0
1565006398437.5,-49,-1,35,0,0,0,0,0
1565006398468.75,-51,-2,37,0,0,0,0,0
1565006398500,-55,-2,36,0,0,0,0,0
1565006398531.25,-55,-1,34,0,0,0,0,0
1565006398562.5,-51,0,35,0,0,0,0,0
1565006398593.75,-54,-1,35,0,0,0,0,0
1565006398625,-50,-3,39,0,0,0,0,0
1565006398656.25,-46,-2,42,0,0,0,0,0
1565006398687.5,-46,-3,44,0,0,0,0,0
1565006398718.75,-38,-2,44,0,0,0,0,0
1565006398750,-40,-4,46,0,0,0,0,0
1565006398781.25,-39,-6,49,0,0,0,0,0
1565006398812.5,-39,-7,49,0,0,0,0,0
1565006398843.75,-32,-4,49,0,0,0,0,0
1565006398875,-75,-84,73,0,0,0,0,0
1565006398906.25,-77,36,38,0,0,0,0,0
1565006398937.5,-33,-34,35,0,0,0,0,0
1565006398968.75,-19,17,19,0,0,0,0,0
1565006399000,-37,8,39,0,0,0,0,0
1565006399031.25,-52,-7,67,0,0,0,0,0
1565006399062.5,-35,2,49,0,0,0,0,0
1565006399093.75,-33,-9,37,0,0,0,0,0
1565006399125,-40,-3,44,0,0,0,0,0
1565006399156.25,-41,-10,54,0,0,0,0,0
1565006399187.5,-37,-9,52,0,0,0,0,0
1565006399218.75,-39,-3,47,0,0,0,0,0
1565006399250,-40,-2,47,0,0,0,0,0
1565006399281.25,-42,2,49,0,0,0,0,0
1565006399312.5,-44,1,49,0,0,0,0,0
1565006399343.75,-45,-9,39,0,0,0,0,0
1565006399375,-47,-3,39,0,0,0,0,0
1565006399406.25,-48,-3,39,0,0,0,0,0
1565006399437.5,-48,-2,40,0,0,0,0,0
1565006399468.75,-48,-2,39,0,0,0,0,0
1565006399500,-50,-1,38,0,0,0,0,0
1565006399531.25,-50,-2,38,0,0,0,0,0
1565006399562.5,-49,-4,39,0,0,0,0,0
1565006399593.75,-48,-4,40,0,0,0,0,0
1565006399625,-48,-8,43,0,0,0,0,0
1565006399656.25,-48,-9,43,0,0,0,0,0
1565006399687.5,-51,-9,43,0,0,0,0,0
1565006399718.75,-52,-4,43,0,0,0,0,0
1565006399750,-45,0,38,0,0,0,0,0
1565006399781.25,-38,1,34,0,0,0,0,0
1565006399812.5,-40,7,38,0,0,0,0,0
1565006399843.75,-41,10,38,0,0,0,0,0
1565006399875,-41,11,29,0,0,0,0,0
1565006399906.25,-49,10,26,0,0,0,0,0
1565006399937.5,-66,-4,29,0,0,0,0,0
1565006399968.75,-90,-16,33,0,0,0,0,0
1565006400000,-48,-9,29,0,0,0,0,0
1565006400031.25,-56,-7,33,0,0,0,0,0
1565006400062.5,-50,-5,35,0,0,0,0,0
1565006400093.75,-52,-4,33,0,0,0,0,0
1565006400125,-54,-2,32,0,0,0,0,0
1565006400156.25,-55,1,30,0,0,0,0,0
1565006400187.5,-55,0,30,0,0,0,0,0
1565006400218.75,-54,-3,31,0,0,0,0,0
1565006400250,-54,-2,30,0,0,0,0,0
1565006400281.25,-55,-2,28,0,0,0,0,0
1565006400312.5,-56,-2,28,0,0,0,0,0
1565006400343.75,-57,-1,27,0,0,0,0,0
1565006400375,-57,-1,27,0,0,0,0,0
1565006400406.25,-56,-1,27,0,0,0,0,0
1565006400437.5,-56,-1,28,0,0,0,0,0
1565006400468.75,-56,0,28,0,0,0,0,0
1565006400500,-56,0,28,0,0,0,0,0
1565006400531.25,-55,-1,28,0,0,0,0,0
1565006400562.5,-56,-1,28,0,0,0,0,0
1565006400593.75,-57,-1,26,0,0,0,0,0
1565006400625,-57,0,26,0,0,0,0,0
1565006400656.25,-56,0,26,0,0,0,0,0
1565006400687.5,-55,3,27,0,0,0,0,0
1565006400718.75,-55,2,28,0,0,0,0,0
1565006400750,-55,-2,28,0,0,0,0,0
1565006400781.25,-56,-5,27,0,0,0,0,0
1565006400812.5,-60,-6,21,0,0,0,0,0
1565006400843.75,-61,-5,19,0,0,0,0,0
1565006400875,-64,-2,16,0,0,0,0,0
1565006400906.25,-62,-2,17,0,0,0,0,0
1565006400937.5,-60,-3,21,0,0,0,0,0
1565006400968.75,-58,-2,24,0,0,0,0,0
1565006401000,-54,-1,29,0,0,0,0,0
1565006401031.25,-53,0,31,0,0,0,0,0
1565006401062.5,-52,3,33,0,0,0,0,0
1565006401093.75,-51,4,34,0,0,0,0,0
1565006401125,-52,2,31,0,0,0,0,0
1565006401156.25,-54,1,31,0,0,0,0,0
1565006401187.5,-54,-4,30,0,0,0,0,0
1565006401218.75,-55,-4,28,0,0,0,0,0
1565006401250,-57,-4,27,0,0,0,0,0
1565006401281.25,-57,-2,26,0,0,0,0,0
1565006401312.5,-57,-2,27,0,0,0,0,0
1565006401343.75,-55,-2,28,0,0,0,0,0
1565006401375,-55,-2,29,0,0,0,0,0
1565006401406.25,-55,0,29,0,0,0,0,0
1565006401437.5,-55,0,30,0,0,0,0,0
1565006401468.75,-54,1,31,0,0,0,0,0
1565006401500,-54,1,31,0,0,0,0,0
1565006401531.25,-54,-4,31,0,0,0,0,0
1565006401562.5,-55,-5,31,0,0,0,0,0
1565006401593.75,-55,-6,31,0,0,0,0,0
1565006401625,-55,-5,31,0,0,0,0,0
1565006401656.25,-54,0,31,0,0,0,0,0
1565006401687.5,-54,3,29,0,0,0,0,0
1565006401718.75,-57,1,27,0,0,0,0,0
1565006401750,-56,-2,28,0,0,0,0,0
1565006401781.25,-55,-8,30,0,0,0,0,0
1565006401812.5,-54,-8,32,0,0,0,0,0
1565006401843.75,-53,-3,33,0,0,0,0,0
1565006401875,-54,-5,32,0,0,0,0,0
1565006401906.25,-58,-13,31,0,0,0,0,0
1565006401937.5,-63,-13,33,0,0,0,0,0
1565006401968.75,-65,0,34,0,0,0,0,0
1565006402000,-54,14,33,0,0,0,0,0
1565006402031.25,-50,7,34,0,0,0,0,0
1565006402062.5,-39,0,35,0,0,0,0,0
1565006402093.75,-39,-1,40,0,0,0,0,0
1565006402125,-47,-7,47,0,0,0,0,0
1565006402156.25,-48,-9,46,0,0,0,0,0
1565006402187.5,-57,-5,32,0,0,0,0,0
1565006402218.75,-56,0,31,0,0,0,0,0
1565006402250,-57,0,21,0,0,0,0,0
1565006402281.25,-60,3,14,0,0,0,0,0
1565006402312.5,-51,7,10,0,0,0,0,0
1565006402343.75,-56,8,9,0,0,0,0,0
1565006402375,-60,7,5,0,0,0,0,0
1565006402406.25,-58,7,3,0,0,0,0,0
1565006402437.5,-61,8,-2,0,0,0,0,0
1565006402468.75,-61,8,-5,0,0,0,0,0
1565006402500,-45,11,-18,0,0,0,0,0
1565006402531.25,-72,-3,-14,0,0,0,0,0
1565006402562.5,-95,-2,2,0,0,0,0,0
1565006402593.75,-80,-17,7,0,0,0,0,0
1565006402625,-73,-7,-6,0,0,0,0,0
1565006402656.25,-50,6,8,0,0,0,0,0
1565006402687.5,-55,6,-3,0,0,0,0,0
1565006402718.75,-66,5,-11,0,0,0,0,0
1565006402750,-49,2,0,0,0,0,0,0
1565006402781.25,-60,1,13,0,0,0,0,0
1565006402812.5,-64,2,13,0,0,0,0,0
1565006402843.75,-53,5,1,0,0,0,0,0
1565006402875,-43,13,-9,0,0,0,0,0
1565006402906.25,-63,2,-17,0,0,0,0,0
1565006402937.5,-83,3,-11,0,0,0,0,0
1565006402968.75,-82,-17,10,0,0,0,0,0
1565006403000,-72,-3,-6,0,0,0,0,0
1565006403031.25,-52,10,10,0,0,0,0,0
1565006403062.5,-35,12,-10,0,0,0,0,0
1565006403093.75,-93,5,-5,0,0,0,0,0
1565006403125,-50,3,-4,0,0,0,0,0
1565006403156.25,-51,4,6,0,0,0,0,0
1565006403187.5,-64,3,12,0,0,0,0,0
1565006403218.75,-53,2,11,0,0,0,0,0
1565006403250,-29,12,-4,0,0,0,0,0
1565006403281.25,-57,-6,-23,0,0,0,0,0
1565006403312.5,-84,-4,-1,0,0,0,0,0
1565006403343.75,-70,-7,20,0,0,0,0,0
1565006403375,-72,-1,-9,0,0,0,0,0
1565006403406.25,-76,-2,-3,0,0,0,0,0
1565006403437.5,-37,5,23,0,0,0,0,0
1565006403468.75,-69,-15,1,0,0,0,0,0
1565006403500,-71,7,-12,0,0,0,0,0
1565006403531.25,-37,2,-4,0,0,0,0,0
1565006403562.5,-49,11,15,0,0,0,0,0
1565006403593.75,-54,11,14,0,0,0,0,0
1565006403625,-63,4,-5,0,0,0,0,0
1565006403656.25,-68,5,-14,0,0,0,0,0
1565006403687.5,-61,-2,-18,0,0,0,0,0
1565006403718.75,-75,-5,-24,0,0,0,0,0
1565006403750,-68,-3,6,0,0,0,0,0
1565006403781.25,-70,-6,-9,0,0,0,0,0
1565006403812.5,-68,-1,-1,0,0,0,0,0
1565006403843.75,-46,6,4,0,0,0,0,0
1565006403875,-69,-7,10,0,0,0,0,0
1565006403906.25,-50,0,-2,0,0,0,0,0
1565006403937.5,-39,3,2,0,0,0,0,0
1565006403968.75,-61,8,8,0,0,0,0,0
1565006404000,-58,8,8,0,0,0,0,0
1565006404031.25,-49,1,3,0,0,0,0,0
1565006404062.5,-78,-6,-9,0,0,0,0,0
1565006404093.75,-64,-10,-1,0,0,0,0,0
1565006404125,-66,0,-6,0,0,0,0,0
1565006404156.25,-62,6,1,0,0,0,0,0
1565006404187.5,-65,-2,4,0,0,0,0,0
1565006404218.75,-57,0,4,0,0,0,0,0
1565006404250,-61,2,4,0,0,0,0,0
1565006404281.25,-61,2,5,0,0,0,0,0
1565006404312.5,-57,2,4,0,0,0,0,0
1565006404343.75,-78,-1,-12,0,0,0,0,0
1565006404375,-66,-3,-9,0,0,0,0,0
1565006404406.25,-60,3,-7,0,0,0,0,0
1565006404437.5,-65,1,4,0,0,0,0,0
1565006404468.75,-61,-1,8,0,0,0,0,0
1565006404500,-63,0,3,0,0,0,0,0
1565006404531.25,-61,2,3,0,0,0,0,0
1565006404562.5,-58,2,2,0,0,0,0,0
1565006404593.75,-64,0,-4,0,0,0,0,0
1565006404625,-66,-2,-7,0,0,0,0,0
1565006404656.25,-63,1,-7,0,0,0,0,0
1565006404687.5,-66,2,-1,0,0,0,0,0
1565006404718.75,-63,0,5,0,0,0,0,0
1565006404750,-60,0,4,0,0,0,0,0
1565006404781.25,-63,1,2,0,0,0,0,0
1565006404812.5,-63,1,4,0,0,0,0,0
1565006404843.75,-62,0,6,0,0,0,0,0
1565006404875,-71,-2,-3,0,0,0,0,0
1565006404906.25,-71,-3,-3,0,0,0,0,0
1565006404937.5,-65,-3,6,0,0,0,0,0
1565006404968.75,-62,-2,8,0,0,0,0,0
1565006405000,-54,-2,8,0,0,0,0,0
1565006405031.25,-62,0,3,0,0,0,0,0
1565006405062.5,-64,3,-1,0,0,0,0,0
1565006405093.75,-63,2,-7,0,0,0,0,0
1565006405125,-60,3,-4,0,0,0,0,0
1565006405156.25,-67,6,-11,0,0,0,0,0
1565006405187.5,-80,3,-12,0,0,0,0,0
1565006405218.75,-62,0,-3,0,0,0,0,0
1565006405250,-56,-3,5,0,0,0,0,0
1565006405281.25,-60,4,14,0,0,0,0,0
1565006405312.5,-57,6,10,0,0,0,0,0
1565006405343.75,-53,7,-4,0,0,0,0,0
1565006405375,-60,1,-9,0,0,0,0,0
1565006405406.25,-73,0,5,0,0,0,0,0
1565006405437.5,-65,-8,14,0,0,0,0,0
1565006405468.75,-73,-5,8,0,0,0,0,0
1565006405500,-64,0,12,0,0,0,0,0
1565006405531.25,-76,-5,1,0,0,0,0,0
1565006405562.5,-73,11,-8,0,0,0,0,0
1565006405593.75,-46,6,-2,0,0,0,0,0
1565006405625,-61,8,1,0,0,0,0,0
1565006405656.25,-63,3,8,0,0,0,0,0
1565006405687.5,-46,8,-4,0,0,0,0,0
1565006405718.75,-40,10,-13,0,0,0,0,0
1565006405750,-107,-4,-16,0,0,0,0,0
1565006405781.25,-75,-1,29,0,0,0,0,0
1565006405812.5,-65,-7,-4,0,0,0,0,0
1565006405843.75,-57,-4,-4,0,0,0,0,0
1565006405875,-79,-2,14,0,0,0,0,0
1565006405906.25,-72,0,27,0,0,0,0,0
1565006405937.5,-59,-11,5,0,0,0,0,0
1565006405968.75,-80,9,-10,0,0,0,0,0
1565006406000,-40,10,-8,0,0,0,0,0
1565006406031.25,-54,11,4,0,0,0,0,0
1565006406062.5,-73,2,11,0,0,0,0,0
1565006406093.75,-68,-1,14,0,0,0,0,0
1565006406125,-6,23,-14,0,0,0,0,0
1565006406156.25,-48,-19,-33,0,0,0,0,0
1565006406187.5,-117,14,17,0,0,0,0,0
1565006406218.75,-79,-13,29,0,0,0,0,0
1565006406250,-59,-8,-11,0,0,0,0,0
1565006406281.25,-68,-4,8,0,0,0,0,0
1565006406312.5,-48,9,18,0,0,0,0,0
1565006406343.75,-77,4,-9,0,0,0,0,0
1565006406375,-45,6,-16,0,0,0,0,0
1565006406406.25,-50,13,4,0,0,0,0,0
1565006406437.5,-68,9,7,0,0,0,0,0
1565006406468.75,-64,-4,11,0,0,0,0,0
1565006406500,-61,-4,8,0,0,0,0,0
1565006406531.25,-47,8,-1,0,0,0,0,0
1565006406562.5,-25,19,-14,0,0,0,0,0
1565006406593.75,-128,-22,-40,0,0,0,0,0
1565006406625,-89,10,6,0,0,0,0,0
1565006406656.25,-54,-8,17,0,0,0,0,0
1565006406687.5,-56,1,8,0,0,0,0,0
1565006406718.75,-67,1,6,0,0,0,0,0
1565006406750,-63,0,6,0,0,0,0,0
1565006406781.25,-68,1,-1,0,0,0,0,0
1565006406812.5,-66,2,-3,0,0,0,0,0
1565006406843.75,-62,1,-5,0,0,0,0,0
1565006406875,-63,1,-3,0,0,0,0,0
1565006406906.25,-64,0,1,0,0,0,0,0
1565006406937.5,-65,0,3,0,0,0,0,0
1565006406968.75,-62,0,3,0,0,0,0,0
1565006407000,-61,0,1,0,0,0,0,0
1565006407031.25,-63,1,0,0,0,0,0,0
1565006407062.5,-65,1,-1,0,0,0,0,0
1565006407093.75,-64,0,-1,0,0,0,0,0
1565006407125,-63,0,1,0,0,0,0,0
1565006407156.25,-64,0,2,0,0,0,0,0
1565006407187.5,-63,0,2,0,0,0,0,0
1565006407218.75,-64,1,1,0,0,0,0,0
1565006407250,-62,0,4,0,0,0,0,0
1565006407281.25,-64,-1,6,0,0,0,0,0
1565006407312.5,-63,-1,7,0,0,0,0,0
1565006407343.75,-61,0,7,0,0,0,0,0
1565006407375,-63,-1,8,0,0,0,0,0
1565006407406.25,-63,-1,8,0,0,0,0,0
1565006407437.5,-61,0,7,0,0,0,0,0
1565006407468.75,-64,0,6,0,0,0,0,0
1565006407500,-67,1,-7,0,0,0,0,0
1565006407531.25,-72,-1,-12,0,0,0,0,0
1565006407562.5,-69,10,-10,0,0,0,0,0
1565006407593.75,-43,19,-21,0,0,0,0,0
1565006407625,-49,14,-21,0,0,0,0,0
1565006407656.25,-83,-7,-6,0,0,0,0,0
1565006407687.5,-91,-19,9,0,0,0,0,0
1565006407718.75,-46,-27,36,0,0,0,0,0
1565006407750,-49,-22,33,0,0,0,0,0
1565006407781.25,-68,-9,18,0,0,0,0,0
1565006407812.5,-66,-4,11,0,0,0,0,0
1565006407843.75,-61,5,6,0,0,0,0,0
1565006407875,-44,10,10,0,0,0,0,0
1565006407906.25,-67,4,-2,0,0,0,0,0
1565006407937.5,-65,2,-3,0,0,0,0,0
1565006407968.75,-59,2,-3,0,0,0,0,0
1565006408000,-64,2,-2,0,0,0,0,0
1565006408031.25,-63,1,0,0,0,0,0,0
1565006408062.5,-59,1,0,0,0,0,0,0
1565006408093.75,-69,1,-12,0,0,0,0,0
1565006408125,-71,-2,-14,0,0,0,0,0
1565006408156.25,-65,1,-10,0,0,0,0,0
1565006408187.5,-57,3,-3,0,0,0,0,0
1565006408218.75,-70,-1,-1,0,0,0,0,0
1565006408250,-60,0,0,0,0,0,0,0
1565006408281.25,-58,1,-1,0,0,0,0,0
1565006408312.5,-62,2,0,0,0,0,0,0
1565006408343.75,-63,1,0,0,0,0,0,0
1565006408375,-59,2,-3,0,0,0,0,0
1565006408406.25,-69,0,-10,0,0,0,0,0
1565006408437.5,-62,-3,-9,0,0,0,0,0
1565006408468.75,-64,1,-8,0,0,0,0,0
1565006408500,-60,2,0,0,0,0,0,0
1565006408531.25,-64,-1,2,0,0,0,0,0
1565006408562.5,-61,0,0,0,0,0,0,0
1565006408593.75,-60,1,-3,0,0,0,0,0
1565006408625,-62,2,0,0,0,0,0,0
1565006408656.25,-63,1,0,0,0,0,0,0
1565006408687.5,-61,1,1,0,0,0,0,0
1565006408718.75,-60,1,-1,0,0,0,0,0
1565006408750,-69,0,-11,0,0,0,0,0
1565006408781.25,-61,-2,-7,0,0,0,0,0
1565006408812.5,-66,0,-5,0,0,0,0,0
1565006408843.75,-54,2,3,0,0,0,0,0
1565006408875,-70,-1,0,0,0,0,0,0
1565006408906.25,-60,-1,1,0,0,0,0,0
1565006408937.5,-59,1,-2,0,0,0,0,0
1565006408968.75,-65,2,-2,0,0,0,0,0
1565006409000,-63,1,0,0,0,0,0,0
1565006409031.25,-62,1,0,0,0,0,0,0
1565006409062.5,-62,1,0,0,0,0,0,0
1565006409093.75,-65,0,-8,0,0,0,0,0
1565006409125,-68,0,-11,0,0,0,0,0
1565006409156.25,-64,0,-5,0,0,0,0,0
1565006409187.5,-65,0,-6,0,0,0,0,0
1565006409218.75,-59,2,-2,0,0,0,0,0
1565006409250,-66,2,-3,0,0,0,0,0
1565006409281.25,-63,0,-2,0,0,0,0,0
1565006409312.5,-58,2,-3,0,0,0,0,0
1565006409343.75,-63,1,0,0,0,0,0,0
1565006409375,-66,2,-4,0,0,0,0,0
1565006409406.25,-63,1,-2,0,0,0,0,0
1565006409437.5,-63,0,2,0,0,0,0,0
1565006409468.75,-62,0,5,0,0,0,0,0
1565006409500,-62,0,1,0,0,0,0,0
1565006409531.25,-65,1,-6,0,0,0,0,0
1565006409562.5,-66,2,-15,0,0,0,0,0
1565006409593.75,-66,1,-16,0,0,0,0,0
1565006409625,-61,1,-6,0,0,0,0,0
1565006409656.25,-63,1,-1,0,0,0,0,0
1565006409687.5,-62,0,-3,0,0,0,0,0
1565006409718.75,-62,0,-6,0,0,0,0,0
1565006409750,-65,0,-10,0,0,0,0,0
1565006409781.25,-65,1,-9,0,0,0,0,0
1565006409812.5,-64,1,-1,0,0,0,0,0
1565006409843.75,-58,2,-5,0,0,0,0,0
1565006409875,-61,2,2,0,0,0,0,0
1565006409906.25,-57,0,3,0,0,0,0,0
1565006409937.5,-65,2,-2,0,0,0,0,0
1565006409968.75,-64,1,-2,0,0,0,0,0
1565006410000,-63,1,-6,0,0,0,0,0
1565006410031.25,-71,1,-11,0,0,0,0,0
1565006410062.5,-61,-2,-4,0,0,0,0,0
1565006410093.75,-65,-1,-5,0,0,0,0,0
1565006410125,-62,1,-2,0,0,0,0,0
1565006410156.25,-64,1,2,0,0,0,0,0
1565006410187.5,-61,-3,2,0,0,0,0,0
1565006410218.75,-57,2,-4,0,0,0,0,0
1565006410250,-62,2,-2,0,0,0,0,0
1565006410281.25,-64,1,0,0,0,0,0,0
1565006410312.5,-63,1,0,0,0,0,0,0
1565006410343.75,-61,2,-2,0,0,0,0,0
1565006410375,-66,2,-7,0,0,0,0,0
1565006410406.25,-64,-2,-9,0,0,0,0,0
1565006410437.5,-60,0,-5,0,0,0,0,0
1565006410468.75,-66,2,0,0,0,0,0,0
1565006410500,-63,0,-2,0,0,0,0,0
1565006410531.25,-63,0,-5,0,0,0,0,0
1565006410562.5,-64,-1,-10,0,0,0,0,0
1565006410593.75,-65,2,-5,0,0,0,0,0
1565006410625,-65,2,0,0,0,0,0,0
1565006410656.25,-71,-1,-6,0,0,0,0,0
1565006410687.5,-60,1,2,0,0,0,0,0
1565006410718.75,-64,1,-2,0,0,0,0,0
1565006410750,-63,1,-4,0,0,0,0,0
1565006410781.25,-63,1,-3,0,0,0,0,0
1565006410812.5,-63,1,0,0,0,0,0,0
1565006410843.75,-64,1,4,0,0,0,0,0
1565006410875,-61,2,-1,0,0,0,0,0
1565006410906.25,-61,3,-10,0,0,0,0,0
1565006410937.5,-62,-2,-17,0,0,0,0,0
1565006410968.75,-58,0,-10,0,0,0,0,0
1565006411000,-71,2,1,0,0,0,0,0
1565006411031.25,-68,-1,-7,0,0,0,0,0
1565006411062.5,-65,0,1,0,0,0,0,0
1565006411093.75,-56,2,1,0,0,0,0,0
1565006411125,-65,-3,-1,0,0,0,0,0
1565006411156.25,-54,0,4,0,0,0,0,0
1565006411187.5,-66,3,-6,0,0,0,0,0
1565006411218.75,-68,2,-2,0,0,0,0,0
1565006411250,-64,0,1,0,0,0,0,0
1565006411281.25,-62,0,5,0,0,0,0,0
1565006411312.5,-59,2,-1,0,0,0,0,0
1565006411343.75,-73,3,-29,0,0,0,0,0
1565006411375,-71,-1,-26,0,0,0,0,0
1565006411406.25,-63,-4,4,0,0,0,0,0
1565006411437.5,-74,-1,8,0,0,0,0,0
1565006411468.75,-64,-1,-8,0,0,0,0,0
1565006411500,-61,0,1,0,0,0,0,0
1565006411531.25,-50,5,1,0,0,0,0,0
1565006411562.5,-71,-11,0,0,0,0,0,0
1565006411593.75,-40,2,1,0,0,0,0,0
1565006411625,-54,5,-10,0,0,0,0,0
1565006411656.25,-67,4,-2,0,0,0,0,0
1565006411687.5,-60,2,0,0,0,0,0,0
1565006411718.75,-60,1,2,0,0,0,0,0
1565006411750,-58,2,-3,0,0,0,0,0
1565006411781.25,-85,-1,-26,0,0,0,0,0
1565006411812.5,-51,-3,-12,0,0,0,0,0
1565006411843.75,-70,0,1,0,0,0,0,0
1565006411875,-76,1,-10,0,0,0,0,0
1565006411906.25,-61,1,3,0,0,0,0,0
1565006411937.5,-45,2,2,0,0,0,0,0
1565006411968.75,-59,3,0,0,0,0,0,0
1565006412000,-61,3,-4,0,0,0,0,0
1565006412031.25,-68,3,-3,0,0,0,0,0
1565006412062.5,-62,1,-4,0,0,0,0,0
1565006412093.75,-62,1,-3,0,0,0,0,0
1565006412125,-60,2,-5,0,0,0,0,0
1565006412156.25,-66,0,-10,0,0,0,0,0
1565006412187.5,-63,-3,-8,0,0,0,0,0
1565006412218.75,-65,0,-6,0,0,0,0,0
1565006412250,-55,3,0,0,0,0,0,0
1565006412281.25,-68,-1,-1,0,0,0,0,0
1565006412312.5,-59,-1,4,0,0,0,0,0
1565006412343.75,-58,1,0,0,0,0,0,0
1565006412375,-63,2,-3,0,0,0,0,0
1565006412406.25,-63,1,-3,0,0,0,0,0
1565006412437.5,-58,1,-1,0,0,0,0,0
1565006412468.75,-65,0,-7,0,0,0,0,0
1565006412500,-63,-2,-11,0,0,0,0,0
1565006412531.25,-63,0,-10,0,0,0,0,0
1565006412562.5,-65,1,-1,0,0,0,0,0
1565006412593.75,-61,-1,2,0,0,0,0,0
1565006412625,-61,1,0,0,0,0,0,0
1565006412656.25,-62,1,-1,0,0,0,0,0
1565006412687.5,-63,1,0,0,0,0,0,0
1565006412718.75,-58,1,-1,0,0,0,0,0
1565006412750,-66,0,-8,0,0,0,0,0
1565006412781.25,-65,-1,-14,0,0,0,0,0
1565006412812.5,-63,1,-11,0,0,0,0,0
1565006412843.75,-64,0,-2,0,0,0,0,0
1565006412875,-65,0,1,0,0,0,0,0
1565006412906.25,-59,0,2,0,0,0,0,0
1565006412937.5,-62,1,1,0,0,0,0,0
1565006412968.75,-62,1,0,0,0,0,0,0
1565006413000,-60,1,1,0,0,0,0,0
1565006413031.25,-67,0,-8,0,0,0,0,0
1565006413062.5,-76,-1,-14,0,0,0,0,0
1565006413093.75,-63,2,-12,0,0,0,0,0
1565006413125,-62,2,-6,0,0,0,0,0
1565006413156.25,-65,-1,2,0,0,0,0,0
1565006413187.5,-59,-1,3,0,0,0,0,0
1565006413218.75,-64,0,1,0,0,0,0,0
1565006413250,-63,0,2,0,0,0,0,0
1565006413281.25,-60,1,1,0,0,0,0,0
1565006413312.5,-64,1,-7,0,0,0,0,0
1565006413343.75,-72,0,-14,0,0,0,0,0
1565006413375,-64,0,-12,0,0,0,0,0
1565006413406.25,-60,3,-8,0,0,0,0,0
1565006413437.5,-64,0,3,0,0,0,0,0
1565006413468.75,-62,-1,1,0,0,0,0,0
1565006413500,-62,1,1,0,0,0,0,0
1565006413531.25,-66,0,2,0,0,0,0,0
1565006413562.5,-60,1,3,0,0,0,0,0
1565006413593.75,-52,2,1,0,0,0,0,0
1565006413625,-84,-3,-24,0,0,0,0,0
1565006413656.25,-61,-1,-12,0,0,0,0,0
1565006413687.5,-62,0,-1,0,0,0,0,0
1565006413718.75,-70,0,3,0,0,0,0,0
1565006413750,-62,2,-1,0,0,0,0,0
1565006413781.25,-53,1,4,0,0,0,0,0
1565006413812.5,-67,2,6,0,0,0,0,0
1565006413843.75,-50,2,8,0,0,0,0,0
1565006413875,-40,3,3,0,0,0,0,0
1565006413906.25,-80,-2,-13,0,0,0,0,0
1565006413937.5,-57,1,-1,0,0,0,0,0
1565006413968.75,-71,1,2,0,0,0,0,0
1565006414000,-57,1,12,0,0,0,0,0
1565006414031.25,-62,-5,14,0,0,0,0,0
1565006414062.5,-70,-6,14,0,0,0,0,0
1565006414093.75,-52,-3,17,0,0,0,0,0
1565006414125,-33,0,6,0,0,0,0,0
1565006414156.25,-128,-16,-32,0,0,0,0,0
1565006414187.5,-54,-11,3,0,0,0,0,0
1565006414218.75,-61,-5,-6,0,0,0,0,0
1565006414250,-70,-4,-1,0,0,0,0,0
1565006414281.25,-60,-5,0,0,0,0,0,0
1565006414312.5,-59,-4,0,0,0,0,0,0
1565006414343.75,-58,-2,-2,0,0,0,0,0
1565006414375,-61,-2,-2,0,0,0,0,0
1565006414406.25,-67,0,5,0,0,0,0,0
1565006414437.5,-69,0,8,0,0,0,0,0
1565006414468.75,-65,1,10,0,0,0,0,0
1565006414500,-64,2,9,0,0,0,0,0
1565006414531.25,-63,0,12,0,0,0,0,0
1565006414562.5,-65,-1,14,0,0,0,0,0
1565006414593.75,-67,-1,15,0,0,0,0,0
1565006414625,-71,-3,17,0,0,0,0,0
1565006414656.25,-66,-2,18,0,0,0,0,0
1565006414687.5,-59,1,18,0,0,0,0,0
1565006414718.75,-58,3,17,0,0,0,0,0
1565006414750,-60,12,17,0,0,0,0,0
1565006414781.25,-64,13,18,0,0,0,0,0
1565006414812.5,-67,14,20,0,0,0,0,0
1565006414843.75,-64,15,23,0,0,0,0,0
1565006414875,-67,14,29,0,0,0,0,0
1565006414906.25,-64,13,32,0,0,0,0,0
1565006414937.5,-52,10,41,0,0,0,0,0
1565006414968.75,-44,8,45,0,0,0,0,0
1565006415000,-36,5,52,0,0,0,0,0
1565006415031.25,-36,3,53,0,0,0,0,0
1565006415062.5,-35,2,54,0,0,0,0,0
1565006415093.75,-34,1,55,0,0,0,0,0
1565006415125,-32,3,54,0,0,0,0,0
1565006415156.25,-29,4,54,0,0,0,0,0
1565006415187.5,-27,4,53,0,0,0,0,0
1565006415218.75,-23,7,53,0,0,0,0,0
1565006415250,-21,7,52,0,0,0,0,0
1565006415281.25,-18,7,52,0,0,0,0,0
1565006415312.5,-16,7,52,0,0,0,0,0
1565006415343.75,-13,6,52,0,0,0,0,0
1565006415375,-12,6,53,0,0,0,0,0
1565006415406.25,-10,6,54,0,0,0,0,0
1565006415437.5,-9,7,55,0,0,0,0,0
1565006415468.75,-9,8,57,0,0,0,0,0
1565006415500,-10,8,57,0,0,0,0,0
1565006415531.25,-12,8,58,0,0,0,0,0
1565006415562.5,-11,8,58,0,0,0,0,0
1565006415593.75,-10,7,59,0,0,0,0,0
1565006415625,-11,7,59,0,0,0,0,0
1565006415656.25,-10,4,58,0,0,0,0,0
1565006415687.5,-9,3,58,0,0,0,0,0
1565006415718.75,-9,-1,58,0,0,0,0,0
1565006415750,-9,-5,58,0,0,0,0,0
1565006415781.25,-8,-6,58,0,0,0,0,0
1565006415812.5,-6,-10,59,0,0,0,0,0
1565006415843.75,-6,-12,60,0,0,0,0,0
1565006415875,-5,-14,62,0,0,0,0,0
1565006415906.25,-5,-17,62,0,0,0,0,0
1565006415937.5,-1,-21,57,0,0,0,0,0
1565006415968.75,-4,-17,61,0,0,0,0,0
1565006416000,-5,-21,60,0,0,0,0,0
1565006416031.25,-6,-23,59,0,0,0,0,0
1565006416062.5,-13,-23,57,0,0,0,0,0
1565006416093.75,-17,-21,57,0,0,0,0,0
1565006416125,-15,-24,60,0,0,0,0,0
1565006416156.25,-12,-24,62,0,0,0,0,0
1565006416187.5,-14,-23,60,0,0,0,0,0
1565006416218.75,-16,-20,59,0,0,0,0,0
1565006416250,-13,-25,58,0,0,0,0,0
1565006416281.25,-15,-32,58,0,0,0,0,0
1565006416312.5,-12,-32,58,0,0,0,0,0
1565006416343.75,-11,-41,53,0,0,0,0,0
1565006416375,-17,-39,47,0,0,0,0,0
1565006416406.25,-12,-39,51,0,0,0,0,0
1565006416437.5,-4,-41,52,0,0,0,0,0
1565006416468.75,-5,-37,49,0,0,0,0,0
1565006416500,-9,-40,46,0,0,0,0,0
1565006416531.25,-13,-39,44,0,0,0,0,0
1565006416562.5,-14,-32,43,0,0,0,0,0
1565006416593.75,-15,-45,46,0,0,0,0,0
1565006416625,-22,-46,43,0,0,0,0,0
1565006416656.25,-28,-47,40,0,0,0,0,0
1565006416687.5,-26,-47,38,0,0,0,0,0
1565006416718.75,-17,-49,44,0,0,0,0,0
1565006416750,-16,-52,43,0,0,0,0,0
1565006416781.25,-10,-52,40,0,0,0,0,0
1565006416812.5,-9,-45,38,0,0,0,0,0
1565006416843.75,-7,-48,35,0,0,0,0,0
1565006416875,-9,-44,32,0,0,0,0,0
1565006416906.25,-9,-38,22,0,0,0,0,0
1565006416937.5,-21,-38,11,0,0,0,0,0
1565006416968.75,-36,-53,6,0,0,0,0,0
1565006417000,-35,-60,11,0,0,0,0,0
1565006417031.25,-33,-58,8,0,0,0,0,0
1565006417062.5,-37,-56,3,0,0,0,0,0
1565006417093.75,-33,-52,5,0,0,0,0,0
1565006417125,-39,-49,2,0,0,0,0,0
1565006417156.25,-42,-54,-1,0,0,0,0,0
1565006417187.5,-45,-58,-5,0,0,0,0,0
1565006417218.75,-45,-57,-7,0,0,0,0,0
1565006417250,-40,-48,-5,0,0,0,0,0
1565006417281.25,-38,-50,-3,0,0,0,0,0
1565006417312.5,-34,-55,-5,0,0,0,0,0
1565006417343.75,-32,-56,-5,0,0,0,0,0
1565006417375,-26,-53,-5,0,0,0,0,0
1565006417406.25,-27,-50,-7,0,0,0,0,0
1565006417437.5,-29,-60,-6,0,0,0,0,0
1565006417468.75,-29,-62,-5,0,0,0,0,0
1565006417500,-30,-42,-1,0,0,0,0,0
1565006417531.25,-32,-42,-2,0,0,0,0,0
1565006417562.5,-27,-53,3,0,0,0,0,0
1565006417593.75,-30,-60,3,0,0,0,0,0
1565006417625,-38,-51,2,0,0,0,0,0
1565006417656.25,-27,-47,8,0,0,0,0,0
1565006417687.5,-28,-53,10,0,0,0,0,0
1565006417718.75,-31,-48,19,0,0,0,0,0
1565006417750,-33,-40,19,0,0,0,0,0
1565006417781.25,-41,-46,12,0,0,0,0,0
1565006417812.5,-44,-48,10,0,0,0,0,0
1565006417843.75,-43,-44,14,0,0,0,0,0
1565006417875,-48,-42,11,0,0,0,0,0
1565006417906.25,-53,-43,5,0,0,0,0,0
1565006417937.5,-50,-43,9,0,0,0,0,0
1565006417968.75,-40,-41,26,0,0,0,0,0
1565006418000,-41,-43,28,0,0,0,0,0
1565006418031.25,-19,-79,4,0,0,0,0,0
1565006418062.5,-63,-53,25,0,0,0,0,0
1565006418093.75,-33,-15,45,0,0,0,0,0
1565006418125,-34,-35,45,0,0,0,0,0
1565006418156.25,-32,-34,51,0,0,0,0,0
1565006418187.5,-33,-35,50,0,0,0,0,0
1565006418218.75,-41,-35,48,0,0,0,0,0
1565006418250,-50,-32,46,0,0,0,0,0
1565006418281.25,-71,-22,40,0,0,0,0,0
1565006418312.5,-71,-15,33,0,0,0,0,0
1565006418343.75,-66,-13,32,0,0,0,0,0
1565006418375,-50,0,30,0,0,0,0,0
1565006418406.25,-42,8,26,0,0,0,0,0
1565006418437.5,-35,22,19,0,0,0,0,0
1565006418468.75,-37,26,15,0,0,0,0,0
1565006418500,-37,36,9,0,0,0,0,0
1565006418531.25,-39,39,7,0,0,0,0,0
1565006418562.5,-43,40,7,0,0,0,0,0
1565006418593.75,-42,42,5,0,0,0,0,0
1565006418625,-38,41,10,0,0,0,0,0
1565006418656.25,-33,38,18,0,0,0,0,0
1565006418687.5,-29,29,32,0,0,0,0,0
1565006418718.75,-35,23,36,0,0,0,0,0
1565006418750,-41,16,40,0,0,0,0,0
1565006418781.25,-43,13,42,0,0,0,0,0
1565006418812.5,-42,3,50,0,0,0,0,0
1565006418843.75,-37,-2,60,0,0,0,0,0
1565006418875,-39,-8,60,0,0,0,0,0
1565006418906.25,-42,-10,50,0,0,0,0,0
1565006418937.5,-33,-11,51,0,0,0,0,0
1565006418968.75,-21,-20,52,0,0,0,0,0
1565006419000,-31,-25,57,0,0,0,0,0
1565006419031.25,-46,-25,71,0,0,0,0,0
1565006419062.5,-54,-28,55,0,0,0,0,0
1565006419093.75,-44,-23,41,0,0,0,0,0
1565006419125,-35,-17,35,0,0,0,0,0
1565006419156.25,-38,-18,34,0,0,0,0,0
1565006419187.5,-64,-28,41,0,0,0,0,0
1565006419218.75,-40,-16,32,0,0,0,0,0
1565006419250,-48,-14,30,0,0,0,0,0
1565006419281.25,-57,-11,27,0,0,0,0,0
1565006419312.5,-54,-7,29,0,0,0,0,0
1565006419343.75,-55,-4,31,0,0,0,0,0
1565006419375,-54,-3,32,0,0,0,0,0
1565006419406.25,-54,-5,31,0,0,0,0,0
1565006419437.5,-53,-6,32,0,0,0,0,0
1565006419468.75,-53,-7,32,0,0,0,0,0
1565006419500,-54,-7,31,0,0,0,0,0
1565006419531.25,-55,-4,29,0,0,0,0,0
1565006419562.5,-54,-4,30,0,0,0,0,0
1565006419593.75,-53,-5,32,0,0,0,0,0
1565006419625,-53,-6,32,0,0,0,0,0
1565006419656.25,-54,-6,31,0,0,0,0,0
1565006419687.5,-55,-5,29,0,0,0,0,0
1565006419718.75,-55,-5,29,0,0,0,0,0
1565006419750,-53,-5,31,0,0,0,0,0
1565006419781.25,-52,-5,33,0,0,0,0,0
1565006419812.5,-53,-5,31,0,0,0,0,0
1565006419843.75,-53,-5,31,0,0,0,0,0
1565006419875,-54,-3,31,0,0,0,0,0
1565006419906.25,-52,-4,32,0,0,0,0,0
1565006419937.5,-54,-4,32,0,0,0,0,0
1565006419968.75,-55,-6,31,0,0,0,0,0
1565006420000,-56,-8,28,0,0,0,0,0
1565006420031.25,-57,-9,26,0,0,0,0,0
1565006420062.5,-58,-7,25,0,0,0,0,0
1565006420093.75,-59,-7,24,0,0,0,0,0
1565006420125,-58,-6,25,0,0,0,0,0
1565006420156.25,-58,-5,26,0,0,0,0,0
1565006420187.5,-54,-6,29,0,0,0,0,0
1565006420218.75,-55,-6,29,0,0,0,0,0
1565006420250,-55,-6,29,0,0,0,0,0
1565006420281.25,-55,-6,30,0,0,0,0,0
1565006420312.5,-54,-6,30,0,0,0,0,0
1565006420343.75,-53,-6,31,0,0,0,0,0
1565006420375,-53,-6,32,0,0,0,0,0
1565006420406.25,-54,-7,31,0,0,0,0,0
1565006420437.5,-54,-7,31,0,0,0,0,0
1565006420468.75,-54,-8,31,0,0,0,0,0
1565006420500,-53,-8,31,0,0,0,0,0
1565006420531.25,-54,-7,31,0,0,0,0,0
1565006420562.5,-55,-5,30,0,0,0,0,0
1565006420593.75,-56,-4,28,0,0,0,0,0
1565006420625,-56,-3,27,0,0,0,0,0
1565006420656.25,-57,-3,27,0,0,0,0,0
1565006420687.5,-57,-4,28,0,0,0,0,0
1565006420718.75,-52,-6,32,0,0,0,0,0
1565006420750,-50,-7,34,0,0,0,0,0
1565006420781.25,-48,-6,39,0,0,0,0,0
1565006420812.5,-47,-7,39,0,0,0,0,0
1565006420843.75,-48,-8,38,0,0,0,0,0
1565006420875,-49,-7,37,0,0,0,0,0
1565006420906.25,-49,-6,35,0,0,0,0,0
1565006420937.5,-53,-5,32,0,0,0,0,0
1565006420968.75,-53,-6,32,0,0,0,0,0
1565006421000,-54,-7,32,0,0,0,0,0
1565006421031.25,-54,-8,33,0,0,0,0,0
1565006421062.5,-52,-8,34,0,0,0,0,0
1565006421093.75,-52,-8,35,0,0,0,0,0
1565006421125,-54,-9,33,0,0,0,0,0
1565006421156.25,-56,-8,33,0,0,0,0,0
1565006421187.5,-58,-9,31,0,0,0,0,0
1565006421218.75,-60,-10,28,0,0,0,0,0
1565006421250,-63,-5,23,0,0,0,0,0
1565006421281.25,-53,0,23,0,0,0,0,0
1565006421312.5,-56,1,18,0,0,0,0,0
1565006421343.75,-59,0,14,0,0,0,0,0
1565006421375,-63,3,19,0,0,0,0,0
1565006421406.25,-59,-1,23,0,0,0,0,0
1565006421437.5,-53,-12,27,0,0,0,0,0
1565006421468.75,-62,-11,17,0,0,0,0,0
1565006421500,-60,2,18,0,0,0,0,0
1565006421531.25,-69,20,8,0,0,0,0,0
1565006421562.5,-76,22,-3,0,0,0,0,0
1565006421593.75,-66,15,-7,0,0,0,0,0
1565006421625,-57,5,-2,0,0,0,0,0
1565006421656.25,-53,-17,6,0,0,0,0,0
1565006421687.5,-61,-27,1,0,0,0,0,0
1565006421718.75,-63,-33,-7,0,0,0,0,0
1565006421750,-52,-28,-7,0,0,0,0,0
1565006421781.25,-61,-18,-39,0,0,0,0,0
1565006421812.5,-70,-33,-35,0,0,0,0,0
1565006421843.75,-80,0,15,0,0,0,0,0
1565006421875,-79,3,-1,0,0,0,0,0
1565006421906.25,-66,6,-16,0,0,0,0,0
1565006421937.5,-64,7,-1,0,0,0,0,0
1565006421968.75,-38,-3,14,0,0,0,0,0
1565006422000,-87,-8,-11,0,0,0,0,0
1565006422031.25,-61,-3,-7,0,0,0,0,0
1565006422062.5,-48,-3,9,0,0,0,0,0
1565006422093.75,-58,0,9,0,0,0,0,0
1565006422125,-59,1,15,0,0,0,0,0
1565006422156.25,-60,2,11,0,0,0,0,0
1565006422187.5,-53,6,-6,0,0,0,0,0
1565006422218.75,-46,-3,-6,0,0,0,0,0
1565006422250,-88,-1,-7,0,0,0,0,0
1565006422281.25,-89,-7,9,0,0,0,0,0
1565006422312.5,-73,-12,-8,0,0,0,0,0
1565006422343.75,-67,-4,-6,0,0,0,0,0
1565006422375,-40,1,-2,0,0,0,0,0
1565006422406.25,-88,-5,-13,0,0,0,0,0
1565006422437.5,-49,-2,4,0,0,0,0,0
1565006422468.75,-46,-1,7,0,0,0,0,0
1565006422500,-57,2,0,0,0,0,0,0
1565006422531.25,-65,-1,-1,0,0,0,0,0
1565006422562.5,-68,-2,-1,0,0,0,0,0
1565006422593.75,-61,2,-5,0,0,0,0,0
1565006422625,-48,-3,-23,0,0,0,0,0
1565006422656.25,-64,-9,-17,0,0,0,0,0
1565006422687.5,-82,1,16,0,0,0,0,0
1565006422718.75,-65,-10,3,0,0,0,0,0
1565006422750,-61,-7,7,0,0,0,0,0
1565006422781.25,-77,-8,-8,0,0,0,0,0
1565006422812.5,-68,3,-10,0,0,0,0,0
1565006422843.75,-52,0,0,0,0,0,0,0
1565006422875,-60,2,2,0,0,0,0,0
1565006422906.25,-61,-3,3,0,0,0,0,0
1565006422937.5,-57,-2,6,0,0,0,0,0
1565006422968.75,-59,-1,0,0,0,0,0,0
1565006423000,-68,1,-8,0,0,0,0,0
1565006423031.25,-58,-8,-15,0,0,0,0,0
1565006423062.5,-59,-2,-9,0,0,0,0,0
1565006423093.75,-77,-3,1,0,0,0,0,0
1565006423125,-69,-3,-5,0,0,0,0,0
1565006423156.25,-58,-3,-4,0,0,0,0,0
1565006423187.5,-59,-4,-1,0,0,0,0,0
1565006423218.75,-67,-4,3,0,0,0,0,0
1565006423250,-68,-8,-4,0,0,0,0,0
1565006423281.25,-63,-2,-9,0,0,0,0,0
1565006423312.5,-70,0,-2,0,0,0,0,0
1565006423343.75,-74,-9,-7,0,0,0,0,0
1565006423375,-54,0,1,0,0,0,0,0
1565006423406.25,-45,2,0,0,0,0,0,0
1565006423437.5,-63,2,-3,0,0,0,0,0
1565006423468.75,-63,0,-2,0,0,0,0,0
1565006423500,-58,-1,-1,0,0,0,0,0
1565006423531.25,-62,-1,-9,0,0,0,0,0
1565006423562.5,-61,-10,-13,0,0,0,0,0
1565006423593.75,-65,-2,-6,0,0,0,0,0
1565006423625,-77,-4,-4,0,0,0,0,0
1565006423656.25,-71,-4,-8,0,0,0,0,0
1565006423687.5,-68,-1,8,0,0,0,0,0
1565006423718.75,-42,-1,10,0,0,0,0,0
1565006423750,-57,1,-5,0,0,0,0,0
1565006423781.25,-49,0,1,0,0,0,0,0
1565006423812.5,-65,1,0,0,0,0,0,0
1565006423843.75,-66,-1,-1,0,0,0,0,0
1565006423875,-58,-3,-1,0,0,0,0,0
1565006423906.25,-57,-1,1,0,0,0,0,0
1565006423937.5,-68,-2,-2,0,0,0,0,0
1565006423968.75,-68,-9,-10,0,0,0,0,0
1565006424000,-56,-3,-4,0,0,0,0,0
1565006424031.25,-67,-3,4,0,0,0,0,0
1565006424062.5,-71,-4,2,0,0,0,0,0
1565006424093.75,-60,-4,0,0,0,0,0,0
1565006424125,-64,-3,3,0,0,0,0,0
1565006424156.25,-67,-4,2,0,0,0,0,0
1565006424187.5,-61,-3,6,0,0,0,0,0
1565006424218.75,-63,-3,4,0,0,0,0,0
1565006424250,-64,-3,4,0,0,0,0,0
1565006424281.25,-62,-2,2,0,0,0,0,0
1565006424312.5,-60,-2,3,0,0,0,0,0
1565006424343.75,-69,-4,-5,0,0,0,0,0
1565006424375,-68,-4,-4,0,0,0,0,0
1565006424406.25,-64,-4,1,0,0,0,0,0
1565006424437.5,-63,-4,0,0,0,0,0,0
1565006424468.75,-61,-3,4,0,0,0,0,0
1565006424500,-63,-4,6,0,0,0,0,0
1565006424531.25,-63,-3,7,0,0,0,0,0
1565006424562.5,-62,-4,5,0,0,0,0,0
1565006424593.75,-63,-2,3,0,0,0,0,0
1565006424625,-61,-3,3,0,0,0,0,0
1565006424656.25,-66,-4,-2,0,0,0,0,0
1565006424687.5,-61,-4,0,0,0,0,0,0
1565006424718.75,-63,-4,1,0,0,0,0,0
1565006424750,-60,-4,5,0,0,0,0,0
1565006424781.25,-62,-5,6,0,0,0,0,0
1565006424812.5,-62,-3,4,0,0,0,0,0
1565006424843.75,-62,-3,3,0,0,0,0,0
1565006424875,-63,-3,3,0,0,0,0,0
1565006424906.25,-62,-4,3,0,0,0,0,0
1565006424937.5,-64,-4,1,0,0,0,0,0
1565006424968.75,-63,-4,1,0,0,0,0,0
1565006425000,-63,-4,3,0,0,0,0,0
1565006425031.25,-63,-4,3,0,0,0,0,0
1565006425062.5,-62,-4,4,0,0,0,0,0
1565006425093.75,-63,-4,4,0,0,0,0,0
1565006425125,-63,-4,3,0,0,0,0,0
1565006425156.25,-63,-4,3,0,0,0,0,0
1565006425187.5,-63,-4,2,0,0,0,0,0
1565006425218.75,-63,-4,3,0,0,0,0,0
1565006425250,-62,-4,4,0,0,0,0,0
1565006425281.25,-62,-4,4,0,0,0,0,0
1565006425312.5,-62,-4,4,0,0,0,0,0
1565006425343.75,-63,-4,3,0,0,0,0,0
1565006425375,-63,-4,3,0,0,0,0,0
1565006425406.25,-63,-4,3,0,0,0,0,0
1565006425437.5,-62,-4,3,0,0,0,0,0
1565006425468.75,-63,-4,4,0,0,0,0,0
1565006425500,-63,-4,4,0,0,0,0,0
1565006425531.25,-63,-4,3,0,0,0,0,0
1565006425562.5,-62,-4,3,0,0,0,0,0
1565006425593.75,-62,-4,4,0,0,0,0,0
1565006425625,-62,-4,4,0,0,0,0,0
1565006425656.25,-64,-3,4,0,0,0,0,0
1565006425687.5,-60,-4,3,0,0,0,0,0
1565006425718.75,-66,-4,2,0,0,0,0,0
1565006425750,-63,-5,1,0,0,0,0,0
1565006425781.25,-64,-3,4,0,0,0,0,0
1565006425812.5,-59,-4,8,0,0,0,0,0
1565006425843.75,-62,-4,7,0,0,0,0,0
1565006425875,-60,-3,5,0,0,0,0,0
1565006425906.25,-63,-3,5,0,0,0,0,0
1565006425937.5,-61,-4,7,0,0,0,0,0
1565006425968.75,-58,-3,5,0,0,0,0,0
1565006426000,-70,-4,-4,0,0,0,0,0
1565006426031.25,-63,-6,-2,0,0,0,0,0
1565006426062.5,-65,-4,-2,0,0,0,0,0
1565006426093.75,-62,-2,2,0,0,0,0,0
1565006426125,-63,-4,7,0,0,0,0,0
1565006426156.25,-62,-4,9,0,0,0,0,0
1565006426187.5,-63,-4,4,0,0,0,0,0
1565006426218.75,-63,-2,3,0,0,0,0,0
1565006426250,-60,-3,4,0,0,0,0,0
1565006426281.25,-64,-3,-1,0,0,0,0,0
1565006426312.5,-63,-6,-1,0,0,0,0,0
1565006426343.75,-63,-4,1,0,0,0,0,0
1565006426375,-62,-3,2,0,0,0,0,0
1565006426406.25,-60,-4,5,0,0,0,0,0
