Timestamp,ACC_X,ACC_Y,ACC_Z,Note,AGG,ED,SIB,Condition
1584021304000,23,-40,25,0,0,0,0,0
1584021304031.25,20,-56,21,0,0,0,0,0
1584021304062.5,-2,-83,12,0,0,0,0,0
1584021304093.75,-9,-48,55,0,0,0,0,0
1584021304125,-11,-27,80,0,0,0,0,0
1584021304156.25,-50,-19,48,0,0,0,0,0
1584021304187.5,-56,-28,47,0,0,0,0,0
1584021304218.75,-42,-44,40,0,0,0,0,0
1584021304250,-37,-49,34,0,0,0,0,0
1584021304281.25,-32,-49,35,0,0,0,0,0
1584021304312.5,-32,-44,20,0,0,0,0,0
1584021304343.75,-43,-43,16,0,0,0,0,0
1584021304375,-40,-52,10,0,0,0,0,0
1584021304406.25,-60,-59,-9,0,0,0,0,0
1584021304437.5,-51,-55,4,0,0,0,0,0
1584021304468.75,-45,-49,8,0,0,0,0,0
1584021304500,-42,-47,14,0,0,0,0,0
1584021304531.25,-40,-46,14,0,0,0,0,0
1584021304562.5,-44,-47,11,0,0,0,0,0
1584021304593.75,-56,-50,6,0,0,0,0,0
1584021304625,-43,-50,12,0,0,0,0,0
1584021304656.25,-48,-54,5,0,0,0,0,0
1584021304687.5,-44,-53,1,0,0,0,0,0
1584021304718.75,-39,-53,5,0,0,0,0,0
1584021304750,-21,-52,10,0,0,0,0,0
1584021304781.25,-15,-54,12,0,0,0,0,0
1584021304812.5,-6,-57,12,0,0,0,0,0
1584021304843.75,-9,-62,3,0,0,0,0,0
1584021304875,-5,-59,-3,0,0,0,0,0
1584021304906.25,-5,-59,4,0,0,0,0,0
1584021304937.5,-7,-56,6,0,0,0,0,0
1584021304968.75,-23,-48,13,0,0,0,0,0
1584021305000,-19,-60,-7,0,0,0,0,0
1584021305031.25,-9,-65,-2,0,0,0,0,0
1584021305062.5,11,-59,5,0,0,0,0,0
1584021305093.75,22,-58,-2,0,0,0,0,0
1584021305125,39,-49,-19,0,0,0,0,0
1584021305156.25,2,-39,-19,0,0,0,0,0
1584021305187.5,51,-36,4,0,0,0,0,0
1584021305218.75,88,-43,18,0,0,0,0,0
1584021305250,92,-44,15,0,0,0,0,0
1584021305281.25,93,-41,26,0,0,0,0,0
1584021305312.5,62,-44,19,0,0,0,0,0
1584021305343.75,49,-47,11,0,0,0,0,0
1584021305375,36,-49,12,0,0,0,0,0
1584021305406.25,28,-49,11,0,0,0,0,0
1584021305437.5,32,-49,12,0,0,0,0,0
1584021305468.75,19,-45,27,0,0,0,0,0
1584021305500,26,-46,25,0,0,0,0,0
1584021305531.25,15,-47,34,0,0,0,0,0
1584021305562.5,16,-50,41,0,0,0,0,0
1584021305593.75,22,-52,33,0,0,0,0,0
1584021305625,15,-50,15,0,0,0,0,0
1584021305656.25,21,-49,20,0,0,0,0,0
1584021305687.5,31,-50,25,0,0,0,0,0
1584021305718.75,34,-49,22,0,0,0,0,0
1584021305750,30,-48,24,0,0,0,0,0
1584021305781.25,33,-44,39,0,0,0,0,0
1584021305812.5,36,-47,35,0,0,0,0,0
1584021305843.75,24,-52,30,0,0,0,0,0
1584021305875,31,-55,18,0,0,0,0,0
1584021305906.25,24,-54,19,0,0,0,0,0
1584021305937.5,23,-52,23,0,0,0,0,0
1584021305968.75,23,-52,23,0,0,0,0,0
1584021306000,20,-52,28,0,0,0,0,0
1584021306031.25,19,-50,36,0,0,0,0,0
1584021306062.5,22,-52,34,0,0,0,0,0
1584021306093.75,23,-53,28,0,0,0,0,0
1584021306125,21,-53,29,0,0,0,0,0
1584021306156.25,19,-52,30,0,0,0,0,0
1584021306187.5,15,-53,33,0,0,0,0,0
1584021306218.75,12,-51,33,0,0,0,0,0
1584021306250,13,-52,29,0,0,0,0,0
1584021306281.25,9,-54,21,0,0,0,0,0
1584021306312.5,8,-57,17,0,0,0,0,0
1584021306343.75,5,-60,10,0,0,0,0,0
1584021306375,10,-61,12,0,0,0,0,0
1584021306406.25,20,-60,20,0,0,0,0,0
1584021306437.5,20,-59,23,0,0,0,0,0
1584021306468.75,18,-60,20,0,0,0,0,0
1584021306500,16,-63,13,0,0,0,0,0
1584021306531.25,11,-59,13,0,0,0,0,0
1584021306562.5,3,-57,14,0,0,0,0,0
1584021306593.75,-8,-57,22,0,0,0,0,0
1584021306625,-14,-56,26,0,0,0,0,0
1584021306656.25,-14,-56,28,0,0,0,0,0
1584021306687.5,-23,-57,23,0,0,0,0,0
1584021306718.75,-20,-58,23,0,0,0,0,0
1584021306750,-18,-59,19,0,0,0,0,0
1584021306781.25,-17,-59,16,0,0,0,0,0
1584021306812.5,-17,-61,17,0,0,0,0,0
1584021306843.75,-11,-60,17,0,0,0,0,0
1584021306875,-14,-58,16,0,0,0,0,0
1584021306906.25,-25,-57,6,0,0,0,0,0
1584021306937.5,-26,-55,16,0,0,0,0,0
1584021306968.75,13,-57,28,0,0,0,0,0
1584021307000,21,-57,22,0,0,0,0,0
1584021307031.25,14,-58,17,0,0,0,0,0
1584021307062.5,18,-58,13,0,0,0,0,0
1584021307093.75,35,-56,14,0,0,0,0,0
1584021307125,26,-57,10,0,0,0,0,0
1584021307156.25,34,-60,8,0,0,0,0,0
1584021307187.5,40,-60,14,0,0,0,0,0
1584021307218.75,35,-61,14,0,0,0,0,0
1584021307250,29,-60,11,0,0,0,0,0
1584021307281.25,25,-58,9,0,0,0,0,0
1584021307312.5,18,-58,10,0,0,0,0,0
1584021307343.75,16,-58,12,0,0,0,0,0
1584021307375,13,-58,13,0,0,0,0,0
1584021307406.25,13,-57,16,0,0,0,0,0
1584021307437.5,19,-57,22,0,0,0,0,0
1584021307468.75,23,-57,23,0,0,0,0,0
1584021307500,22,-56,19,0,0,0,0,0
1584021307531.25,19,-56,17,0,0,0,0,0
1584021307562.5,17,-57,15,0,0,0,0,0
1584021307593.75,15,-58,12,0,0,0,0,0
1584021307625,24,-59,15,0,0,0,0,0
1584021307656.25,23,-59,13,0,0,0,0,0
1584021307687.5,23,-58,12,0,0,0,0,0
1584021307718.75,25,-58,14,0,0,0,0,0
1584021307750,23,-57,13,0,0,0,0,0
1584021307781.25,23,-58,12,0,0,0,0,0
1584021307812.5,29,-59,14,0,0,0,0,0
1584021307843.75,25,-59,14,0,0,0,0,0
1584021307875,24,-57,16,0,0,0,0,0
1584021307906.25,22,-57,18,0,0,0,0,0
1584021307937.5,20,-58,17,0,0,0,0,0
1584021307968.75,17,-59,18,0,0,0,0,0
1584021308000,16,-59,17,0,0,0,0,0
1584021308031.25,13,-59,16,0,0,0,0,0
1584021308062.5,15,-58,19,0,0,0,0,0
1584021308093.75,18,-58,21,0,0,0,0,0
1584021308125,14,-59,19,0,0,0,0,0
1584021308156.25,11,-59,18,0,0,0,0,0
1584021308187.5,14,-59,20,0,0,0,0,0
1584021308218.75,12,-59,20,0,0,0,0,0
1584021308250,3,-59,17,0,0,0,0,0
1584021308281.25,2,-59,15,0,0,0,0,0
1584021308312.5,3,-60,18,0,0,0,0,0
1584021308343.75,5,-60,18,0,0,0,0,0
1584021308375,5,-61,19,0,0,0,0,0
1584021308406.25,1,-60,18,0,0,0,0,0
1584021308437.5,-4,-59,18,0,0,0,0,0
1584021308468.75,-3,-59,18,0,0,0,0,0
1584021308500,-8,-57,18,0,0,0,0,0
1584021308531.25,-6,-54,27,0,0,0,0,0
1584021308562.5,-6,-57,29,0,0,0,0,0
1584021308593.75,-17,-60,23,0,0,0,0,0
1584021308625,-16,-57,14,0,0,0,0,0
1584021308656.25,-11,-55,17,0,0,0,0,0
1584021308687.5,-13,-55,20,0,0,0,0,0
1584021308718.75,-19,-57,14,0,0,0,0,0
1584021308750,-19,-63,18,0,0,0,0,0
1584021308781.25,-32,-58,16,0,0,0,0,0
1584021308812.5,-43,-55,14,0,0,0,0,0
1584021308843.75,-53,-54,23,0,0,0,0,0
1584021308875,-28,-52,19,0,0,0,0,0
1584021308906.25,-12,-44,37,0,0,0,0,0
1584021308937.5,-41,-46,34,0,0,0,0,0
1584021308968.75,-20,-48,38,0,0,0,0,0
1584021309000,-11,-51,38,0,0,0,0,0
1584021309031.25,-4,-52,30,0,0,0,0,0
1584021309062.5,-1,-51,25,0,0,0,0,0
1584021309093.75,5,-55,21,0,0,0,0,0
1584021309125,9,-58,19,0,0,0,0,0
1584021309156.25,13,-61,14,0,0,0,0,0
1584021309187.5,12,-56,15,0,0,0,0,0
1584021309218.75,14,-51,15,0,0,0,0,0
1584021309250,30,-49,36,0,0,0,0,0
1584021309281.25,33,-47,24,0,0,0,0,0
1584021309312.5,34,-46,22,0,0,0,0,0
1584021309343.75,41,-53,23,0,0,0,0,0
1584021309375,44,-58,14,0,0,0,0,0
1584021309406.25,40,-60,19,0,0,0,0,0
1584021309437.5,26,-49,23,0,0,0,0,0
1584021309468.75,23,-46,23,0,0,0,0,0
1584021309500,23,-47,25,0,0,0,0,0
1584021309531.25,25,-51,25,0,0,0,0,0
1584021309562.5,29,-56,25,0,0,0,0,0
1584021309593.75,27,-54,23,0,0,0,0,0
1584021309625,22,-55,21,0,0,0,0,0
1584021309656.25,22,-54,25,0,0,0,0,0
1584021309687.5,21,-51,26,0,0,0,0,0
1584021309718.75,19,-54,24,0,0,0,0,0
1584021309750,19,-59,18,0,0,0,0,0
1584021309781.25,21,-55,20,0,0,0,0,0
1584021309812.5,24,-60,13,0,0,0,0,0
1584021309843.75,29,-58,13,0,0,0,0,0
1584021309875,30,-58,13,0,0,0,0,0
1584021309906.25,26,-59,11,0,0,0,0,0
1584021309937.5,27,-59,12,0,0,0,0,0
1584021309968.75,27,-59,15,0,0,0,0,0
1584021310000,21,-59,18,0,0,0,0,0
1584021310031.25,30,-58,23,0,0,0,0,0
1584021310062.5,14,-54,18,0,0,0,0,0
1584021310093.75,10,-53,17,0,0,0,0,0
1584021310125,16,-53,19,0,0,0,0,0
1584021310156.25,17,-57,21,0,0,0,0,0
1584021310187.5,16,-58,21,0,0,0,0,0
1584021310218.75,11,-58,20,0,0,0,0,0
1584021310250,10,-58,20,0,0,0,0,0
1584021310281.25,11,-57,19,0,0,0,0,0
1584021310312.5,10,-58,19,0,0,0,0,0
1584021310343.75,13,-58,20,0,0,0,0,0
1584021310375,13,-59,23,0,0,0,0,0
1584021310406.25,11,-59,20,0,0,0,0,0
1584021310437.5,10,-58,18,0,0,0,0,0
1584021310468.75,10,-59,17,0,0,0,0,0
1584021310500,11,-59,18,0,0,0,0,0
1584021310531.25,12,-59,21,0,0,0,0,0
1584021310562.5,13,-59,21,0,0,0,0,0
1584021310593.75,12,-59,20,0,0,0,0,0
1584021310625,11,-60,20,0,0,0,0,0
1584021310656.25,9,-60,17,0,0,0,0,0
1584021310687.5,9,-60,17,0,0,0,0,0
1584021310718.75,7,-60,17,0,0,0,0,0
1584021310750,6,-60,17,0,0,0,0,0
1584021310781.25,3,-60,17,0,0,0,0,0
1584021310812.5,2,-60,16,0,0,0,0,0
1584021310843.75,1,-61,17,0,0,0,0,0
1584021310875,-1,-61,14,0,0,0,0,0
1584021310906.25,-2,-60,16,0,0,0,0,0
1584021310937.5,-12,-60,10,0,0,0,0,0
1584021310968.75,3,-62,14,0,0,0,0,0
1584021311000,2,-64,9,0,0,0,0,0
1584021311031.25,12,-61,9,0,0,0,0,0
1584021311062.5,0,-64,5,0,0,0,0,0
1584021311093.75,-4,-59,11,0,0,0,0,0
1584021311125,2,-61,19,0,0,0,0,0
1584021311156.25,13,-62,25,0,0,0,0,0
1584021311187.5,11,-59,31,0,0,0,0,0
1584021311218.75,14,-59,42,0,0,0,0,0
1584021311250,8,-58,32,0,0,0,0,0
1584021311281.25,-11,-58,12,0,0,0,0,0
1584021311312.5,-7,-62,12,0,0,0,0,0
1584021311343.75,-8,-60,6,0,0,0,0,0
1584021311375,5,-66,5,0,0,0,0,0
1584021311406.25,3,-65,4,0,0,0,0,0
1584021311437.5,6,-62,5,0,0,0,0,0
1584021311468.75,8,-60,7,0,0,0,0,0
1584021311500,6,-58,8,0,0,0,0,0
1584021311531.25,12,-59,6,0,0,0,0,0
1584021311562.5,13,-60,5,0,0,0,0,0
1584021311593.75,11,-62,10,0,0,0,0,0
1584021311625,16,-62,10,0,0,0,0,0
1584021311656.25,17,-61,8,0,0,0,0,0
1584021311687.5,19,-57,17,0,0,0,0,0
1584021311718.75,19,-58,14,0,0,0,0,0
1584021311750,23,-58,15,0,0,0,0,0
1584021311781.25,25,-57,13,0,0,0,0,0
1584021311812.5,21,-57,12,0,0,0,0,0
1584021311843.75,19,-63,0,0,0,0,0,0
1584021311875,15,-67,-13,0,0,0,0,0
1584021311906.25,27,-71,-30,0,0,0,0,0
1584021311937.5,62,-62,1,0,0,0,0,0
1584021311968.75,63,-59,22,0,0,0,0,0
1584021312000,-8,-57,-8,0,0,0,0,0
1584021312031.25,4,-55,0,0,0,0,0,0
1584021312062.5,26,-53,14,0,0,0,0,0
1584021312093.75,20,-58,19,0,0,0,0,0
1584021312125,8,-61,9,0,0,0,0,0
1584021312156.25,3,-61,1,0,0,0,0,0
1584021312187.5,5,-60,-7,0,0,0,0,0
1584021312218.75,19,-59,3,0,0,0,0,0
1584021312250,29,-59,14,0,0,0,0,0
1584021312281.25,24,-61,8,0,0,0,0,0
1584021312312.5,22,-62,-10,0,0,0,0,0
1584021312343.75,34,-66,-17,0,0,0,0,0
1584021312375,38,-66,-12,0,0,0,0,0
1584021312406.25,31,-57,-2,0,0,0,0,0
1584021312437.5,35,-55,3,0,0,0,0,0
1584021312468.75,28,-52,10,0,0,0,0,0
1584021312500,-5,-54,3,0,0,0,0,0
1584021312531.25,-4,-57,8,0,0,0,0,0
1584021312562.5,18,-60,25,0,0,0,0,0
1584021312593.75,13,-59,22,0,0,0,0,0
1584021312625,8,-57,13,0,0,0,0,0
1584021312656.25,-6,-54,-1,0,0,0,0,0
1584021312687.5,5,-54,-3,0,0,0,0,0
1584021312718.75,36,-60,3,0,0,0,0,0
1584021312750,23,-62,-5,0,0,0,0,0
1584021312781.25,30,-57,-2,0,0,0,0,0
1584021312812.5,28,-54,0,0,0,0,0,0
1584021312843.75,24,-52,-3,0,0,0,0,0
1584021312875,37,-51,2,0,0,0,0,0
1584021312906.25,65,-48,46,0,0,0,0,0
1584021312937.5,85,-52,34,0,0,0,0,0
1584021312968.75,114,-39,8,0,0,0,0,0
1584021313000,121,-53,8,0,0,0,0,0
1584021313031.25,83,-60,-40,0,0,0,0,0
1584021313062.5,-31,-34,-1,0,0,0,0,0
1584021313093.75,-14,-30,40,0,0,0,0,0
1584021313125,12,-32,58,0,0,0,0,0
1584021313156.25,30,-46,49,0,0,0,0,0
1584021313187.5,-40,-47,25,0,0,0,0,0
1584021313218.75,-21,-41,38,0,0,0,0,0
1584021313250,-4,-30,52,0,0,0,0,0
1584021313281.25,6,-40,62,0,0,0,0,0
1584021313312.5,18,-38,65,0,0,0,0,0
1584021313343.75,28,-41,62,0,0,0,0,0
1584021313375,18,-40,18,0,0,0,0,0
1584021313406.25,9,-20,50,0,0,0,0,0
1584021313437.5,0,-31,53,0,0,0,0,0
1584021313468.75,-28,-31,54,0,0,0,0,0
1584021313500,-26,-32,57,0,0,0,0,0
1584021313531.25,-17,-16,67,0,0,0,0,0
1584021313562.5,-18,-22,60,0,0,0,0,0
1584021313593.75,-24,-22,59,0,0,0,0,0
1584021313625,-20,-22,55,0,0,0,0,0
1584021313656.25,-11,-23,56,0,0,0,0,0
1584021313687.5,-16,-24,56,0,0,0,0,0
1584021313718.75,-19,-26,53,0,0,0,0,0
1584021313750,-9,-26,56,0,0,0,0,0
1584021313781.25,-2,-21,65,0,0,0,0,0
1584021313812.5,-12,-20,60,0,0,0,0,0
1584021313843.75,-14,-22,57,0,0,0,0,0
1584021313875,-21,-20,50,0,0,0,0,0
1584021313906.25,-32,-23,40,0,0,0,0,0
1584021313937.5,-20,-38,32,0,0,0,0,0
1584021313968.75,58,-41,43,0,0,0,0,0
1584021314000,70,-34,53,0,0,0,0,0
1584021314031.25,43,-20,51,0,0,0,0,0
1584021314062.5,36,-23,45,0,0,0,0,0
1584021314093.75,40,-25,17,0,0,0,0,0
1584021314125,65,-32,24,0,0,0,0,0
1584021314156.25,58,-36,17,0,0,0,0,0
1584021314187.5,60,-36,7,0,0,0,0,0
1584021314218.75,68,-40,4,0,0,0,0,0
1584021314250,66,-40,-3,0,0,0,0,0
1584021314281.25,61,-41,-6,0,0,0,0,0
1584021314312.5,52,-42,-8,0,0,0,0,0
1584021314343.75,52,-39,-3,0,0,0,0,0
1584021314375,49,-39,-2,0,0,0,0,0
1584021314406.25,60,-38,-7,0,0,0,0,0
1584021314437.5,53,-33,-7,0,0,0,0,0
1584021314468.75,39,-32,-16,0,0,0,0,0
1584021314500,50,-25,-4,0,0,0,0,0
1584021314531.25,65,-25,9,0,0,0,0,0
1584021314562.5,72,-20,15,0,0,0,0,0
1584021314593.75,85,-14,22,0,0,0,0,0
1584021314625,85,-25,3,0,0,0,0,0
1584021314656.25,-26,-23,-17,0,0,0,0,0
1584021314687.5,29,-12,43,0,0,0,0,0
1584021314718.75,46,-8,49,0,0,0,0,0
1584021314750,61,-5,20,0,0,0,0,0
1584021314781.25,87,-11,35,0,0,0,0,0
1584021314812.5,84,-7,28,0,0,0,0,0
1584021314843.75,38,26,24,0,0,0,0,0
1584021314875,23,14,48,0,0,0,0,0
1584021314906.25,50,14,30,0,0,0,0,0
1584021314937.5,36,4,30,0,0,0,0,0
1584021314968.75,37,13,34,0,0,0,0,0
1584021315000,38,16,50,0,0,0,0,0
1584021315031.25,39,20,53,0,0,0,0,0
1584021315062.5,47,15,46,0,0,0,0,0
1584021315093.75,37,15,33,0,0,0,0,0
1584021315125,39,14,34,0,0,0,0,0
1584021315156.25,38,19,33,0,0,0,0,0
1584021315187.5,61,19,35,0,0,0,0,0
1584021315218.75,65,20,32,0,0,0,0,0
1584021315250,53,24,28,0,0,0,0,0
1584021315281.25,39,24,25,0,0,0,0,0
1584021315312.5,34,20,18,0,0,0,0,0
1584021315343.75,66,24,22,0,0,0,0,0
1584021315375,74,27,23,0,0,0,0,0
1584021315406.25,61,25,13,0,0,0,0,0
1584021315437.5,43,22,0,0,0,0,0,0
1584021315468.75,43,15,-51,0,0,0,0,0
1584021315500,100,23,-22,0,0,0,0,0
1584021315531.25,79,27,-22,0,0,0,0,0
1584021315562.5,48,35,-21,0,0,0,0,0
1584021315593.75,64,40,-27,0,0,0,0,0
1584021315625,54,38,-27,0,0,0,0,0
1584021315656.25,41,37,-36,0,0,0,0,0
1584021315687.5,41,37,-39,0,0,0,0,0
1584021315718.75,38,41,-35,1,0,0,0,0
1584021315750,35,38,-36,1,0,0,0,0
1584021315781.25,34,38,-39,1,0,0,0,0
1584021315812.5,34,39,-38,1,0,0,0,0
1584021315843.75,32,38,-40,1,0,0,0,0
1584021315875,36,39,-31,1,0,0,0,0
1584021315906.25,42,40,-30,1,0,0,0,0
1584021315937.5,44,41,-29,1,0,0,0,0
1584021315968.75,38,41,-27,1,0,0,0,0
1584021316000,39,40,-27,1,0,0,0,0
1584021316031.25,40,42,-28,1,0,0,0,0
1584021316062.5,42,40,-34,1,0,0,0,0
1584021316093.75,36,39,-35,0,0,0,0,0
1584021316125,41,40,-31,0,0,0,0,0
1584021316156.25,55,44,-28,0,0,0,0,0
1584021316187.5,59,40,-27,0,0,0,0,0
1584021316218.75,63,52,-14,0,0,0,0,0
1584021316250,59,33,-35,0,0,0,0,0
1584021316281.25,81,43,11,0,0,0,0,0
1584021316312.5,70,31,13,0,0,0,0,0
1584021316343.75,92,26,34,0,0,0,0,0
1584021316375,77,26,38,0,0,0,0,0
1584021316406.25,51,29,37,0,0,0,0,0
1584021316437.5,-7,23,35,0,0,0,0,0
1584021316468.75,-16,8,36,0,0,0,0,0
1584021316500,-22,7,37,0,0,0,0,0
1584021316531.25,-21,-5,44,0,0,0,0,0
1584021316562.5,-4,-2,50,0,0,0,0,0
1584021316593.75,23,21,94,0,0,0,0,0
1584021316625,11,18,44,0,0,0,0,0
1584021316656.25,11,24,56,0,0,0,0,0
1584021316687.5,-17,23,52,0,0,0,0,0
1584021316718.75,-24,19,64,0,0,0,0,0
1584021316750,-24,18,57,0,0,0,0,0
1584021316781.25,-20,20,60,0,0,0,0,0
1584021316812.5,-23,23,60,0,0,0,0,0
1584021316843.75,-29,33,61,0,0,0,0,0
1584021316875,-26,30,54,0,0,0,0,0
1584021316906.25,-16,29,51,0,0,0,0,0
1584021316937.5,17,27,50,0,0,0,0,0
1584021316968.75,21,25,48,0,0,0,0,0
1584021317000,24,12,53,0,0,0,0,0
1584021317031.25,-7,2,65,0,0,0,0,0
1584021317062.5,-16,-8,56,0,0,0,0,0
1584021317093.75,-23,-18,76,0,0,0,0,0
1584021317125,-11,-13,75,0,0,0,0,0
1584021317156.25,-9,-11,70,0,0,0,0,0
1584021317187.5,-8,-5,67,0,0,0,0,0
1584021317218.75,-11,-13,55,0,0,0,0,0
1584021317250,-7,6,60,0,0,0,0,0
1584021317281.25,-1,8,55,0,0,0,0,0
1584021317312.5,7,9,60,0,0,0,0,0
1584021317343.75,11,10,62,0,0,0,0,0
1584021317375,12,8,62,0,0,0,0,0
1584021317406.25,-1,3,61,0,0,0,0,0
1584021317437.5,-1,4,60,0,0,0,0,0
1584021317468.75,2,5,62,0,0,0,0,0
1584021317500,-3,8,53,0,0,0,0,0
1584021317531.25,1,10,61,0,0,0,0,0
1584021317562.5,0,13,61,0,0,0,0,0
1584021317593.75,8,16,59,0,0,0,0,0
1584021317625,10,16,61,0,0,0,0,0
1584021317656.25,11,12,61,0,0,0,0,0
1584021317687.5,9,8,61,0,0,0,0,0
1584021317718.75,6,10,61,0,0,0,0,0
1584021317750,16,13,58,0,0,0,0,0
1584021317781.25,17,14,60,0,0,0,0,0
1584021317812.5,18,15,63,0,0,0,0,0
1584021317843.75,4,13,62,0,0,0,0,0
1584021317875,2,11,61,0,0,0,0,0
1584021317906.25,7,12,59,0,0,0,0,0
1584021317937.5,12,11,60,0,0,0,0,0
1584021317968.75,15,7,57,0,0,0,0,0
1584021318000,11,8,67,0,0,0,0,0
1584021318031.25,18,12,73,0,0,0,0,0
1584021318062.5,24,23,83,0,0,0,0,0
1584021318093.75,24,22,64,0,0,0,0,0
1584021318125,17,17,44,0,0,0,0,0
1584021318156.25,23,6,32,0,0,0,0,0
1584021318187.5,7,2,19,0,0,0,0,0
1584021318218.75,27,-4,4,0,0,0,0,0
1584021318250,55,-7,11,0,0,0,0,0
1584021318281.25,60,-4,15,0,0,0,0,0
1584021318312.5,71,0,18,0,0,0,0,0
1584021318343.75,71,-11,20,0,0,0,0,0
1584021318375,70,-14,17,0,0,0,0,0
1584021318406.25,46,-8,22,0,0,0,0,0
1584021318437.5,37,-15,25,0,0,0,0,0
1584021318468.75,74,-30,23,0,0,0,0,0
1584021318500,76,-24,14,0,0,0,0,0
1584021318531.25,72,-26,-3,0,0,0,0,0
1584021318562.5,59,-23,-6,0,0,0,0,0
1584021318593.75,64,-21,-8,0,0,0,0,0
1584021318625,55,-17,-3,0,0,0,0,0
1584021318656.25,51,-17,6,0,0,0,0,0
1584021318687.5,49,-19,9,0,0,0,0,0
1584021318718.75,47,-19,4,0,0,0,0,0
1584021318750,53,-21,1,0,0,0,0,0
1584021318781.25,62,-25,13,0,0,0,0,0
1584021318812.5,90,-35,50,0,0,0,0,0
1584021318843.75,100,-47,67,0,0,0,0,0
1584021318875,107,-57,35,0,0,0,0,0
1584021318906.25,-1,-15,3,0,0,0,0,0
1584021318937.5,16,-11,35,0,0,0,0,0
1584021318968.75,44,-7,64,0,0,0,0,0
1584021319000,27,-7,39,0,0,0,0,0
1584021319031.25,32,-29,21,0,0,0,0,0
1584021319062.5,13,-46,22,0,0,0,0,0
1584021319093.75,4,-45,29,0,0,0,0,0
1584021319125,25,-29,56,0,0,0,0,0
1584021319156.25,33,-19,66,0,0,0,0,0
1584021319187.5,21,-6,69,0,0,0,0,0
1584021319218.75,13,-13,57,0,0,0,0,0
1584021319250,10,-17,53,0,0,0,0,0
1584021319281.25,12,-25,53,0,0,0,0,0
1584021319312.5,14,-20,56,0,0,0,0,0
1584021319343.75,10,-17,54,0,0,0,0,0
1584021319375,4,-18,45,0,0,0,0,0
1584021319406.25,9,-21,49,0,0,0,0,0
1584021319437.5,25,-25,44,0,0,0,0,0
1584021319468.75,49,-30,32,0,0,0,0,0
1584021319500,58,-34,25,0,0,0,0,0
1584021319531.25,75,-24,42,0,0,0,0,0
1584021319562.5,67,-18,35,0,0,0,0,0
1584021319593.75,57,-22,21,0,0,0,0,0
1584021319625,59,-25,38,0,0,0,0,0
1584021319656.25,50,-30,18,0,0,0,0,0
1584021319687.5,61,-44,-16,0,0,0,0,0
1584021319718.75,61,-39,-7,0,0,0,0,0
1584021319750,37,-35,-21,0,0,0,0,0
1584021319781.25,33,-28,-39,0,0,0,0,0
1584021319812.5,32,-25,-38,0,0,0,0,0
1584021319843.75,8,-22,-49,0,0,0,0,0
1584021319875,-12,-31,-72,0,0,0,0,0
1584021319906.25,-17,-34,-85,0,0,0,0,0
1584021319937.5,2,-42,-71,0,0,0,0,0
1584021319968.75,28,-43,-59,0,0,0,0,0
1584021320000,51,-37,-48,0,0,0,0,0
1584021320031.25,54,-31,-35,0,0,0,0,0
1584021320062.5,63,-28,-24,0,0,0,0,0
1584021320093.75,71,-27,2,0,0,0,0,0
1584021320125,87,-31,10,0,0,0,0,0
1584021320156.25,74,-43,-7,0,0,0,0,0
1584021320187.5,27,-46,-7,0,0,0,0,0
1584021320218.75,27,-51,-4,0,0,0,0,0
1584021320250,15,-40,2,0,0,0,0,0
1584021320281.25,32,-33,39,0,0,0,0,0
1584021320312.5,38,-34,54,0,0,0,0,0
1584021320343.75,16,-27,53,0,0,0,0,0
1584021320375,19,-26,53,0,0,0,0,0
1584021320406.25,23,-27,49,0,0,0,0,0
1584021320437.5,18,-29,44,0,0,0,0,0
1584021320468.75,13,-28,40,0,0,0,0,0
1584021320500,10,-31,35,0,0,0,0,0
1584021320531.25,13,-32,27,0,0,0,0,0
1584021320562.5,36,-37,32,0,0,0,0,0
1584021320593.75,50,-36,24,0,0,0,0,0
1584021320625,45,-39,14,0,0,0,0,0
1584021320656.25,66,-40,3,0,0,0,0,0
1584021320687.5,83,-37,8,0,0,0,0,0
1584021320718.75,79,-31,1,0,0,0,0,0
1584021320750,48,-30,0,0,0,0,0,0
1584021320781.25,42,-30,4,0,0,0,0,0
1584021320812.5,44,-38,-4,0,0,0,0,0
1584021320843.75,59,-44,-10,0,0,0,0,0
1584021320875,65,-43,-3,0,0,0,0,0
1584021320906.25,70,-40,-10,0,0,0,0,0
1584021320937.5,46,-34,-12,0,0,0,0,0
1584021320968.75,56,-26,34,0,0,0,0,0
1584021321000,74,-39,5,0,0,0,0,0
1584021321031.25,62,-41,-7,0,0,0,0,0
1584021321062.5,22,-37,-7,0,0,0,0,0
1584021321093.75,19,-32,14,0,0,0,0,0
1584021321125,35,-30,38,0,0,0,0,0
1584021321156.25,54,-29,43,0,0,0,0,0
1584021321187.5,56,-34,24,0,0,0,0,0
1584021321218.75,47,-31,16,0,0,0,0,0
1584021321250,49,-32,34,0,0,0,0,0
1584021321281.25,47,-29,35,0,0,0,0,0
1584021321312.5,44,-19,44,0,0,0,0,0
1584021321343.75,45,-15,54,0,0,0,0,0
1584021321375,34,-14,48,0,0,0,0,0
1584021321406.25,19,-14,48,0,0,0,0,0
1584021321437.5,17,-15,48,0,0,0,0,0
1584021321468.75,27,-14,58,0,0,0,0,0
1584021321500,28,-15,56,0,0,0,0,0
1584021321531.25,22,-17,54,0,0,0,0,0
1584021321562.5,25,-18,62,0,0,0,0,0
1584021321593.75,20,-17,61,0,0,0,0,0
1584021321625,10,-17,56,0,0,0,0,0
1584021321656.25,17,-16,55,0,0,0,0,0
1584021321687.5,20,-17,51,0,0,0,0,0
1584021321718.75,26,-14,50,0,0,0,0,0
1584021321750,29,-12,58,0,0,0,0,0
1584021321781.25,7,-6,71,0,0,0,0,0
1584021321812.5,3,-15,60,0,0,0,0,0
1584021321843.75,12,-16,59,0,0,0,0,0
1584021321875,18,-14,59,0,0,0,0,0
1584021321906.25,19,-14,58,0,0,0,0,0
1584021321937.5,17,-13,58,0,0,0,0,0
1584021321968.75,16,-13,59,0,0,0,0,0
1584021322000,16,-13,59,0,0,0,0,0
1584021322031.25,17,-14,55,0,0,0,0,0
1584021322062.5,18,-16,44,0,0,0,0,0
1584021322093.75,27,-11,54,0,0,0,0,0
1584021322125,43,-14,72,0,0,0,0,0
1584021322156.25,31,-12,64,0,0,0,0,0
1584021322187.5,18,-17,56,0,0,0,0,0
1584021322218.75,13,-19,52,0,0,0,0,0
1584021322250,5,-22,50,0,0,0,0,0
1584021322281.25,-18,-24,45,0,0,0,0,0
1584021322312.5,1,-18,63,0,0,0,0,0
1584021322343.75,18,-19,70,0,0,0,0,0
1584021322375,39,-23,44,0,0,0,0,0
1584021322406.25,45,-22,48,0,0,0,0,0
1584021322437.5,36,-21,46,0,0,0,0,0
1584021322468.75,17,-23,47,0,0,0,0,0
1584021322500,13,-22,51,0,0,0,0,0
1584021322531.25,8,-22,58,0,0,0,0,0
1584021322562.5,7,-22,60,0,0,0,0,0
1584021322593.75,3,-19,53,0,0,0,0,0
1584021322625,-46,-16,71,0,0,0,0,0
1584021322656.25,-34,-17,69,0,0,0,0,0
1584021322687.5,-32,-21,60,0,0,0,0,0
1584021322718.75,-22,-25,51,0,0,0,0,0
1584021322750,-17,-16,57,0,0,0,0,0
1584021322781.25,-9,-21,57,0,0,0,0,0
1584021322812.5,-4,-23,60,0,0,0,0,0
1584021322843.75,-7,-24,60,0,0,0,0,0
1584021322875,-10,-23,61,0,0,0,0,0
1584021322906.25,-23,-21,55,0,0,0,0,0
1584021322937.5,-26,-23,51,0,0,0,0,0
1584021322968.75,-22,-25,50,0,0,0,0,0
1584021323000,-18,-26,49,0,0,0,0,0
1584021323031.25,-5,-27,53,0,0,0,0,0
1584021323062.5,-5,-26,58,0,0,0,0,0
1584021323093.75,0,-24,63,0,0,0,0,0
1584021323125,-2,-23,60,0,0,0,0,0
1584021323156.25,-7,-21,56,0,0,0,0,0
1584021323187.5,-13,-18,57,0,0,0,0,0
1584021323218.75,-21,-18,54,0,0,0,0,0
1584021323250,-26,-18,52,0,0,0,0,0
1584021323281.25,-42,-18,46,0,0,0,0,0
1584021323312.5,-69,-23,33,0,0,0,0,0
1584021323343.75,-67,-20,37,0,0,0,0,0
1584021323375,-60,-18,43,0,0,0,0,0
1584021323406.25,-34,-16,51,0,0,0,0,0
1584021323437.5,-24,-18,53,0,0,0,0,0
1584021323468.75,-24,-19,54,0,0,0,0,0
1584021323500,-24,-22,56,0,0,0,0,0
1584021323531.25,-24,-23,56,0,0,0,0,0
1584021323562.5,-19,-24,56,0,0,0,0,0
1584021323593.75,-21,-22,54,0,0,0,0,0
1584021323625,-25,-21,53,0,0,0,0,0
1584021323656.25,-34,-19,51,0,0,0,0,0
1584021323687.5,-36,-18,52,0,0,0,0,0
1584021323718.75,-35,-19,52,0,0,0,0,0
1584021323750,-32,-20,52,0,0,0,0,0
1584021323781.25,-31,-20,52,0,0,0,0,0
1584021323812.5,-30,-20,52,0,0,0,0,0
1584021323843.75,-30,-20,52,0,0,0,0,0
1584021323875,-28,-20,54,0,0,0,0,0
1584021323906.25,-27,-20,55,0,0,0,0,0
1584021323937.5,-27,-20,55,0,0,0,0,0
1584021323968.75,-28,-20,54,0,0,0,0,0
1584021324000,-30,-20,53,0,0,0,0,0
1584021324031.25,-29,-20,53,0,0,0,0,0
1584021324062.5,-29,-20,53,0,0,0,0,0
1584021324093.75,-29,-20,53,0,0,0,0,0
1584021324125,-29,-20,53,0,0,0,0,0
1584021324156.25,-29,-20,54,0,0,0,0,0
1584021324187.5,-28,-21,53,0,0,0,0,0
1584021324218.75,-29,-20,53,0,0,0,0,0
1584021324250,-30,-20,53,0,0,0,0,0
1584021324281.25,-30,-20,53,0,0,0,0,0
1584021324312.5,-31,-20,53,0,0,0,0,0
1584021324343.75,-31,-20,53,0,0,0,0,0
1584021324375,-31,-20,53,0,0,0,0,0
1584021324406.25,-30,-20,53,0,0,0,0,0
1584021324437.5,-29,-21,53,0,0,0,0,0
1584021324468.75,-29,-21,52,0,0,0,0,0
1584021324500,-30,-20,51,0,0,0,0,0
1584021324531.25,-28,-20,53,0,0,0,0,0
1584021324562.5,-27,-21,55,0,0,0,0,0
1584021324593.75,-29,-21,53,0,0,0,0,0
1584021324625,-32,-19,53,0,0,0,0,0
1584021324656.25,-34,-18,53,0,0,0,0,0
1584021324687.5,-34,-17,53,0,0,0,0,0
1584021324718.75,-32,-19,51,0,0,0,0,0
1584021324750,-32,-20,51,0,0,0,0,0
1584021324781.25,-33,-22,50,0,0,0,0,0
1584021324812.5,-35,-20,51,0,0,0,0,0
1584021324843.75,-35,-19,52,0,0,0,0,0
1584021324875,-34,-18,51,0,0,0,0,0
1584021324906.25,-34,-19,51,0,0,0,0,0
1584021324937.5,-33,-19,52,0,0,0,0,0
1584021324968.75,-34,-20,52,0,0,0,0,0
1584021325000,-35,-20,52,0,0,0,0,0
1584021325031.25,-36,-20,50,0,0,0,0,0
1584021325062.5,-35,-20,50,0,0,0,0,0
1584021325093.75,-34,-19,52,0,0,0,0,0
1584021325125,-34,-19,53,0,0,0,0,0
1584021325156.25,-34,-19,52,0,0,0,0,0
1584021325187.5,-32,-22,49,0,0,0,0,0
1584021325218.75,-28,-22,49,0,0,0,0,0
1584021325250,-27,-22,50,0,0,0,0,0
1584021325281.25,-31,-21,50,0,0,0,0,0
1584021325312.5,-33,-21,51,0,0,0,0,0
1584021325343.75,-33,-22,51,0,0,0,0,0
1584021325375,-37,-23,47,0,0,0,0,0
1584021325406.25,-40,-22,48,0,0,0,0,0
1584021325437.5,-44,-17,49,0,0,0,0,0
1584021325468.75,-42,-15,50,0,0,0,0,0
1584021325500,-36,-14,53,0,0,0,0,0
1584021325531.25,-33,-18,53,0,0,0,0,0
1584021325562.5,-36,-20,51,0,0,0,0,0
1584021325593.75,-40,-26,45,0,0,0,0,0
1584021325625,-40,-24,46,0,0,0,0,0
1584021325656.25,-39,-21,47,0,0,0,0,0
1584021325687.5,-38,-18,44,0,0,0,0,0
1584021325718.75,-41,-19,41,0,0,0,0,0
1584021325750,-46,-21,40,0,0,0,0,0
1584021325781.25,-44,-24,44,0,0,0,0,0
1584021325812.5,-38,-25,45,0,0,0,0,0
1584021325843.75,-35,-23,48,0,0,0,0,0
1584021325875,-36,-22,48,0,0,0,0,0
1584021325906.25,-35,-22,46,0,0,0,0,0
1584021325937.5,-36,-20,49,0,0,0,0,0
1584021325968.75,-35,-20,49,0,0,0,0,0
1584021326000,-36,-20,48,0,0,0,0,0
1584021326031.25,-38,-20,47,0,0,0,0,0
1584021326062.5,-44,-21,44,0,0,0,0,0
1584021326093.75,-47,-23,42,0,0,0,0,0
1584021326125,-47,-25,41,0,0,0,0,0
1584021326156.25,-44,-25,40,0,0,0,0,0
1584021326187.5,-41,-25,41,0,0,0,0,0
1584021326218.75,-40,-25,43,0,0,0,0,0
1584021326250,-39,-25,45,0,0,0,0,0
1584021326281.25,-39,-24,46,0,0,0,0,0
1584021326312.5,-38,-23,45,0,0,0,0,0
1584021326343.75,-39,-22,45,0,0,0,0,0
1584021326375,-41,-22,45,0,0,0,0,0
1584021326406.25,-42,-22,44,0,0,0,0,0
1584021326437.5,-42,-23,43,0,0,0,0,0
1584021326468.75,-45,-23,44,0,0,0,0,0
1584021326500,-45,-22,45,0,0,0,0,0
1584021326531.25,-44,-21,46,0,0,0,0,0
1584021326562.5,-42,-21,45,0,0,0,0,0
1584021326593.75,-42,-23,43,0,0,0,0,0
1584021326625,-41,-24,43,0,0,0,0,0
1584021326656.25,-43,-29,35,0,0,0,0,0
1584021326687.5,-37,-30,38,0,0,0,0,0
1584021326718.75,-40,-25,41,0,0,0,0,0
1584021326750,-41,-24,43,0,0,0,0,0
1584021326781.25,-41,-25,42,0,0,0,0,0
1584021326812.5,-40,-25,43,0,0,0,0,0
1584021326843.75,-40,-24,44,0,0,0,0,0
1584021326875,-43,-24,43,0,0,0,0,0
1584021326906.25,-45,-22,44,0,0,0,0,0
1584021326937.5,-44,-20,45,0,0,0,0,0
1584021326968.75,-42,-20,45,0,0,0,0,0
1584021327000,-41,-23,43,0,0,0,0,0
1584021327031.25,-43,-24,41,0,0,0,0,0
1584021327062.5,-44,-24,42,0,0,0,0,0
1584021327093.75,-43,-23,43,0,0,0,0,0
1584021327125,-42,-24,43,0,0,0,0,0
1584021327156.25,-42,-25,42,0,0,0,0,0
1584021327187.5,-42,-24,43,0,0,0,0,0
1584021327218.75,-41,-23,45,0,0,0,0,0
1584021327250,-41,-23,43,0,0,0,0,0
1584021327281.25,-41,-24,40,0,0,0,0,0
1584021327312.5,-44,-24,42,0,0,0,0,0
1584021327343.75,-44,-24,42,0,0,0,0,0
1584021327375,-43,-25,41,0,0,0,0,0
1584021327406.25,-42,-25,41,0,0,0,0,0
1584021327437.5,-39,-25,42,0,0,0,0,0
1584021327468.75,-38,-24,46,0,0,0,0,0
1584021327500,-37,-24,47,0,0,0,0,0
1584021327531.25,-38,-23,47,0,0,0,0,0
1584021327562.5,-39,-23,45,0,0,0,0,0
1584021327593.75,-40,-23,45,0,0,0,0,0
1584021327625,-42,-23,45,0,0,0,0,0
1584021327656.25,-44,-23,44,0,0,0,0,0
1584021327687.5,-45,-22,42,0,0,0,0,0
1584021327718.75,-42,-23,41,0,0,0,0,0
1584021327750,-41,-24,41,0,0,0,0,0
1584021327781.25,-41,-23,44,0,0,0,0,0
1584021327812.5,-40,-23,45,0,0,0,0,0
1584021327843.75,-41,-22,45,0,0,0,0,0
1584021327875,-40,-21,47,0,0,0,0,0
1584021327906.25,-38,-21,47,0,0,0,0,0
1584021327937.5,-36,-24,44,0,0,0,0,0
1584021327968.75,-36,-25,43,0,0,0,0,0
1584021328000,-40,-24,44,0,0,0,0,0
1584021328031.25,-43,-22,47,0,0,0,0,0
1584021328062.5,-44,-21,47,0,0,0,0,0
1584021328093.75,-42,-21,40,0,0,0,0,0
1584021328125,-43,-22,39,0,0,0,0,0
1584021328156.25,-44,-23,42,0,0,0,0,0
1584021328187.5,-45,-23,46,0,0,0,0,0
1584021328218.75,-46,-21,46,0,0,0,0,0
1584021328250,-46,-22,41,0,0,0,0,0
1584021328281.25,-43,-24,30,0,0,0,0,0
1584021328312.5,-41,-27,30,0,0,0,0,0
1584021328343.75,-54,-27,23,0,0,0,0,0
1584021328375,-57,-24,45,0,0,0,0,0
1584021328406.25,-26,-16,64,0,0,0,0,0
1584021328437.5,-30,-14,55,0,0,0,0,0
1584021328468.75,-31,-15,56,0,0,0,0,0
1584021328500,-35,-17,54,0,0,0,0,0
1584021328531.25,11,-30,35,0,0,0,0,0
1584021328562.5,31,-35,21,0,0,0,0,0
1584021328593.75,61,-35,12,0,0,0,0,0
1584021328625,73,-34,22,0,0,0,0,0
1584021328656.25,64,-38,11,0,0,0,0,0
1584021328687.5,53,-41,-5,0,0,0,0,0
1584021328718.75,49,-41,-12,0,0,0,0,0
1584021328750,44,-40,-22,0,0,0,0,0
1584021328781.25,42,-39,-22,0,0,0,0,0
1584021328812.5,43,-39,-24,0,0,0,0,0
1584021328843.75,44,-41,-21,0,0,0,0,0
1584021328875,46,-41,-18,0,0,0,0,0
1584021328906.25,56,-41,-8,0,0,0,0,0
1584021328937.5,83,-38,17,0,0,0,0,0
1584021328968.75,92,-40,17,0,0,0,0,0
1584021329000,87,-44,-17,0,0,0,0,0
1584021329031.25,50,-41,-26,0,0,0,0,0
1584021329062.5,-31,-33,3,0,0,0,0,0
1584021329093.75,-22,-29,33,0,0,0,0,0
1584021329125,9,-27,46,0,0,0,0,0
1584021329156.25,65,-26,83,0,0,0,0,0
1584021329187.5,35,-25,68,0,0,0,0,0
1584021329218.75,3,-19,71,0,0,0,0,0
1584021329250,-9,-20,62,0,0,0,0,0
1584021329281.25,-1,-21,61,0,0,0,0,0
1584021329312.5,0,-23,58,0,0,0,0,0
1584021329343.75,2,-23,55,0,0,0,0,0
1584021329375,3,-24,51,0,0,0,0,0
1584021329406.25,20,-22,49,0,0,0,0,0
1584021329437.5,29,-23,47,0,0,0,0,0
1584021329468.75,41,-23,54,0,0,0,0,0
1584021329500,28,-26,47,0,0,0,0,0
1584021329531.25,30,-27,45,0,0,0,0,0
1584021329562.5,47,-29,42,0,0,0,0,0
1584021329593.75,55,-32,43,0,0,0,0,0
1584021329625,49,-31,39,0,0,0,0,0
1584021329656.25,41,-38,51,0,0,0,0,0
1584021329687.5,45,-41,60,0,0,0,0,0
1584021329718.75,20,-44,70,0,0,0,0,0
1584021329750,17,-46,60,0,0,0,0,0
1584021329781.25,37,-43,59,0,0,0,0,0
1584021329812.5,48,-41,37,0,0,0,0,0
1584021329843.75,68,-31,37,0,0,0,0,0
1584021329875,26,-15,25,0,0,0,0,0
1584021329906.25,19,-23,17,0,0,0,0,0
1584021329937.5,-7,-45,-28,0,0,0,0,0
1584021329968.75,43,-88,-70,0,0,0,0,0
1584021330000,82,-58,53,0,0,0,0,0
1584021330031.25,50,-49,4,0,0,0,0,0
1584021330062.5,45,-54,-28,0,0,0,0,0
1584021330093.75,41,-37,-25,0,0,0,0,0
1584021330125,50,1,-8,0,0,0,0,0
1584021330156.25,65,2,-2,0,0,0,0,0
1584021330187.5,67,-10,-18,0,0,0,0,0
1584021330218.75,73,-63,-46,0,0,0,0,0
1584021330250,43,-63,-41,0,0,0,0,0
1584021330281.25,23,-17,5,0,0,0,0,0
1584021330312.5,31,-8,26,0,0,0,0,0
1584021330343.75,26,-9,39,0,0,0,0,0
1584021330375,20,-26,45,0,0,0,0,0
1584021330406.25,19,-29,46,0,0,0,0,0
1584021330437.5,6,-27,59,0,0,0,0,0
1584021330468.75,3,-29,55,0,0,0,0,0
1584021330500,2,-25,48,0,0,0,0,0
1584021330531.25,3,-39,38,0,0,0,0,0
1584021330562.5,4,-36,37,0,0,0,0,0
1584021330593.75,2,-13,44,0,0,0,0,0
1584021330625,8,2,44,0,0,0,0,0
1584021330656.25,-10,17,50,0,0,0,0,0
1584021330687.5,-12,17,66,0,0,0,0,0
1584021330718.75,-25,-13,94,0,0,0,0,0
1584021330750,-24,-18,94,0,0,0,0,0
1584021330781.25,-33,-37,105,0,0,0,0,0
1584021330812.5,-13,-22,98,0,0,0,0,0
1584021330843.75,-12,-10,66,0,0,0,0,0
1584021330875,-9,-15,56,0,0,0,0,0
1584021330906.25,-6,-19,58,0,0,0,0,0
1584021330937.5,-7,-24,59,0,0,0,0,0
1584021330968.75,-6,-20,58,0,0,0,0,0
1584021331000,-17,-15,54,0,0,0,0,0
1584021331031.25,-10,-17,52,0,0,0,0,0
1584021331062.5,-9,-19,57,0,0,0,0,0
1584021331093.75,-16,-11,79,0,0,0,0,0
1584021331125,-18,-19,68,0,0,0,0,0
1584021331156.25,-14,-21,53,0,0,0,0,0
1584021331187.5,-16,-21,65,0,0,0,0,0
1584021331218.75,-16,-20,65,0,0,0,0,0
1584021331250,-17,-20,57,0,0,0,0,0
1584021331281.25,-14,-21,55,0,0,0,0,0
1584021331312.5,-14,-22,56,0,0,0,0,0
1584021331343.75,-16,-23,58,0,0,0,0,0
1584021331375,-16,-23,58,0,0,0,0,0
1584021331406.25,-18,-24,57,0,0,0,0,0
1584021331437.5,-18,-24,58,0,0,0,0,0
1584021331468.75,-18,-23,57,0,0,0,0,0
1584021331500,-16,-24,56,0,0,0,0,0
1584021331531.25,-15,-24,56,0,0,0,0,0
1584021331562.5,-14,-25,57,0,0,0,0,0
1584021331593.75,-14,-23,57,0,0,0,0,0
1584021331625,-15,-22,58,0,0,0,0,0
1584021331656.25,-15,-24,60,0,0,0,0,0
1584021331687.5,-18,-22,61,0,0,0,0,0
1584021331718.75,-18,-22,58,0,0,0,0,0
1584021331750,-19,-24,53,0,0,0,0,0
1584021331781.25,-14,-25,51,0,0,0,0,0
1584021331812.5,-12,-26,49,0,0,0,0,0
1584021331843.75,-11,-23,54,0,0,0,0,0
1584021331875,-14,-23,57,0,0,0,0,0
1584021331906.25,-22,-21,59,0,0,0,0,0
1584021331937.5,-21,-21,60,0,0,0,0,0
1584021331968.75,-16,-20,61,0,0,0,0,0
1584021332000,-6,-24,57,0,0,0,0,0
1584021332031.25,-11,-24,52,0,0,0,0,0
1584021332062.5,-14,-25,52,0,0,0,0,0
1584021332093.75,-8,-28,58,0,0,0,0,0
1584021332125,-11,-27,56,0,0,0,0,0
1584021332156.25,-12,-28,55,0,0,0,0,0
1584021332187.5,-13,-28,55,0,0,0,0,0
1584021332218.75,-13,-29,56,0,0,0,0,0
1584021332250,-15,-26,54,0,0,0,0,0
1584021332281.25,-11,-26,55,0,0,0,0,0
1584021332312.5,-10,-29,54,0,0,0,0,0
1584021332343.75,-14,-28,53,0,0,0,0,0
1584021332375,-10,-25,58,0,0,0,0,0
1584021332406.25,-10,-22,58,0,0,0,0,0
1584021332437.5,-9,-21,59,0,0,0,0,0
1584021332468.75,-7,-20,59,0,0,0,0,0
1584021332500,-6,-20,62,0,0,0,0,0
1584021332531.25,-4,-19,66,0,0,0,0,0
1584021332562.5,-6,-21,61,0,0,0,0,0
1584021332593.75,-9,-22,57,0,0,0,0,0
1584021332625,-7,-19,60,0,0,0,0,0
1584021332656.25,-8,-15,64,0,0,0,0,0
1584021332687.5,-12,-18,57,0,0,0,0,0
1584021332718.75,-6,-22,41,0,0,0,0,0
1584021332750,3,-24,41,0,0,0,0,0
1584021332781.25,7,-20,62,0,0,0,0,0
1584021332812.5,-16,-16,79,0,0,0,0,0
1584021332843.75,-14,-19,71,0,0,0,0,0
1584021332875,-5,-19,65,0,0,0,0,0
1584021332906.25,-9,-20,63,0,0,0,0,0
1584021332937.5,-10,-21,57,0,0,0,0,0
1584021332968.75,-5,-15,59,0,0,0,0,0
1584021333000,-7,-11,61,0,0,0,0,0
1584021333031.25,-7,-5,62,0,0,0,0,0
1584021333062.5,-1,-3,64,0,0,0,0,0
1584021333093.75,-2,-4,62,0,0,0,0,0
1584021333125,-2,-9,56,0,0,0,0,0
1584021333156.25,-4,-11,53,0,0,0,0,0
1584021333187.5,-6,-13,55,0,0,0,0,0
1584021333218.75,-9,-12,57,0,0,0,0,0
1584021333250,-10,-11,57,0,0,0,0,0
1584021333281.25,-14,-9,57,0,0,0,0,0
1584021333312.5,-17,-8,57,0,0,0,0,0
1584021333343.75,-21,-8,56,0,0,0,0,0
1584021333375,-23,-7,65,0,0,0,0,0
1584021333406.25,-32,-7,63,0,0,0,0,0
1584021333437.5,-43,2,63,0,0,0,0,0
1584021333468.75,-28,8,66,0,0,0,0,0
1584021333500,-31,6,62,0,0,0,0,0
1584021333531.25,-29,6,62,0,0,0,0,0
1584021333562.5,-25,5,63,0,0,0,0,0
1584021333593.75,-24,3,60,0,0,0,0,0
1584021333625,-24,2,57,0,0,0,0,0
1584021333656.25,-21,1,55,0,0,0,0,0
1584021333687.5,-21,3,55,0,0,0,0,0
1584021333718.75,-22,3,55,0,0,0,0,0
1584021333750,-24,3,58,0,0,0,0,0
1584021333781.25,-27,3,59,0,0,0,0,0
1584021333812.5,-28,3,59,0,0,0,0,0
1584021333843.75,-30,3,58,0,0,0,0,0
1584021333875,-29,2,59,0,0,0,0,0
1584021333906.25,-28,2,59,0,0,0,0,0
1584021333937.5,-26,2,60,0,0,0,0,0
1584021333968.75,-26,2,58,0,0,0,0,0
1584021334000,-25,2,58,0,0,0,0,0
1584021334031.25,-25,2,58,0,0,0,0,0
1584021334062.5,-25,2,58,0,0,0,0,0
1584021334093.75,-25,3,57,0,0,0,0,0
1584021334125,-26,3,58,0,0,0,0,0
1584021334156.25,-27,3,57,0,0,0,0,0
1584021334187.5,-27,3,58,0,0,0,0,0
1584021334218.75,-27,2,58,0,0,0,0,0
1584021334250,-26,2,59,0,0,0,0,0
1584021334281.25,-26,1,58,0,0,0,0,0
1584021334312.5,-25,1,58,0,0,0,0,0
1584021334343.75,-26,2,58,0,0,0,0,0
1584021334375,-26,2,58,0,0,0,0,0
1584021334406.25,-27,2,59,0,0,0,0,0
1584021334437.5,-26,3,58,0,0,0,0,0
1584021334468.75,-25,3,58,0,0,0,0,0
1584021334500,-26,3,57,0,0,0,0,0
1584021334531.25,-26,3,58,0,0,0,0,0
1584021334562.5,-26,2,58,0,0,0,0,0
1584021334593.75,-26,2,58,0,0,0,0,0
1584021334625,-26,2,58,0,0,0,0,0
1584021334656.25,-26,2,58,0,0,0,0,0
1584021334687.5,-26,2,58,0,0,0,0,0
1584021334718.75,-26,2,58,0,0,0,0,0
1584021334750,-26,2,58,0,0,0,0,0
1584021334781.25,-26,3,58,0,0,0,0,0
1584021334812.5,-26,3,58,0,0,0,0,0
1584021334843.75,-26,3,58,0,0,0,0,0
1584021334875,-27,3,58,0,0,0,0,0
1584021334906.25,-27,3,58,0,0,0,0,0
1584021334937.5,-26,3,58,0,0,0,0,0
1584021334968.75,-26,2,58,0,0,0,0,0
1584021335000,-26,2,58,0,0,0,0,0
1584021335031.25,-26,2,58,0,0,0,0,0
1584021335062.5,-27,2,58,0,0,0,0,0
1584021335093.75,-27,2,58,0,0,0,0,0
1584021335125,-27,3,58,0,0,0,0,0
1584021335156.25,-27,2,58,0,0,0,0,0
1584021335187.5,-26,2,58,0,0,0,0,0
1584021335218.75,-27,2,58,0,0,0,0,0
1584021335250,-26,3,58,0,0,0,0,0
1584021335281.25,-26,3,58,0,0,0,0,0
1584021335312.5,-26,3,58,0,0,0,0,0
1584021335343.75,-26,3,58,0,0,0,0,0
1584021335375,-26,2,58,0,0,0,0,0
1584021335406.25,-26,2,57,0,0,0,0,0
1584021335437.5,-26,2,58,0,0,0,0,0
1584021335468.75,-26,2,58,0,0,0,0,0
1584021335500,-26,3,58,0,0,0,0,0
1584021335531.25,-26,2,58,0,0,0,0,0
1584021335562.5,-26,2,58,0,0,0,0,0
1584021335593.75,-26,3,58,0,0,0,0,0
1584021335625,-26,3,58,0,0,0,0,0
1584021335656.25,-26,2,58,0,0,0,0,0
1584021335687.5,-27,2,58,0,0,0,0,0
1584021335718.75,-26,2,58,0,0,0,0,0
1584021335750,-26,2,58,0,0,0,0,0
1584021335781.25,-26,2,58,0,0,0,0,0
1584021335812.5,-26,2,58,0,0,0,0,0
1584021335843.75,-27,2,58,0,0,0,0,0
1584021335875,-26,3,58,0,0,0,0,0
1584021335906.25,-26,3,57,0,0,0,0,0
1584021335937.5,-26,3,58,0,0,0,0,0
1584021335968.75,-27,3,58,0,0,0,0,0
1584021336000,-27,2,58,0,0,0,0,0
1584021336031.25,-27,2,58,0,0,0,0,0
1584021336062.5,-26,2,58,0,0,0,0,0
1584021336093.75,-26,2,58,0,0,0,0,0
1584021336125,-27,2,58,0,0,0,0,0
1584021336156.25,-26,2,58,0,0,0,0,0
1584021336187.5,-27,3,58,0,0,0,0,0
1584021336218.75,-27,2,58,0,0,0,0,0
1584021336250,-27,2,58,0,0,0,0,0
1584021336281.25,-27,2,58,0,0,0,0,0
1584021336312.5,-27,2,58,0,0,0,0,0
1584021336343.75,-27,2,58,0,0,0,0,0
1584021336375,-27,2,58,0,0,0,0,0
1584021336406.25,-27,2,57,0,0,0,0,0
1584021336437.5,-27,3,58,0,0,0,0,0
1584021336468.75,-27,3,58,0,0,0,0,0
1584021336500,-27,2,58,0,0,0,0,0
1584021336531.25,-27,3,58,0,0,0,0,0
1584021336562.5,-27,2,58,0,0,0,0,0
1584021336593.75,-27,2,58,0,0,0,0,0
1584021336625,-27,2,58,0,0,0,0,0
1584021336656.25,-27,2,58,0,0,0,0,0
1584021336687.5,-27,2,58,0,0,0,0,0
1584021336718.75,-27,2,58,0,0,0,0,0
1584021336750,-27,2,58,0,0,0,0,0
1584021336781.25,-27,3,58,0,0,0,0,0
1584021336812.5,-27,4,58,0,0,0,0,0
1584021336843.75,-26,3,57,0,0,0,0,0
1584021336875,-25,3,57,0,0,0,0,0
1584021336906.25,-26,0,57,0,0,0,0,0
1584021336937.5,-31,-1,66,0,0,0,0,0
1584021336968.75,-38,-3,69,0,0,0,0,0
1584021337000,-42,-6,79,0,0,0,0,0
1584021337031.25,-44,-7,85,0,0,0,0,0
1584021337062.5,-75,-10,65,0,0,0,0,0
1584021337093.75,-21,-5,73,0,0,0,0,0
1584021337125,-16,-7,67,0,0,0,0,0
1584021337156.25,-11,-7,47,0,0,0,0,0
1584021337187.5,9,-22,47,0,0,0,0,0
1584021337218.75,14,-28,43,0,0,0,0,0
1584021337250,18,-39,45,0,0,0,0,0
1584021337281.25,7,-40,45,0,0,0,0,0
1584021337312.5,-14,-31,49,0,0,0,0,0
1584021337343.75,13,-1,95,0,0,0,0,0
1584021337375,8,16,76,0,0,0,0,0
1584021337406.25,14,20,-7,0,0,0,0,0
1584021337437.5,-48,28,-34,0,0,0,0,0
1584021337468.75,-66,44,-14,0,0,0,0,0
1584021337500,-75,31,1,0,0,0,0,0
1584021337531.25,-63,17,10,0,0,0,0,0
1584021337562.5,-47,18,-1,0,0,0,0,0
1584021337593.75,26,8,6,0,0,0,0,0
1584021337625,65,15,46,0,0,0,0,0
1584021337656.25,16,49,85,0,0,0,0,0
1584021337687.5,-16,55,69,0,0,0,0,0
1584021337718.75,-35,54,20,0,0,0,0,0
1584021337750,-100,109,38,0,0,0,0,0
1584021337781.25,-48,97,83,0,0,0,0,0
1584021337812.5,-9,49,54,0,0,0,0,0
1584021337843.75,-34,36,30,0,0,0,0,0
1584021337875,-54,33,28,0,0,0,0,0
1584021337906.25,-46,34,35,0,0,0,0,0
1584021337937.5,-44,33,38,0,0,0,0,0
1584021337968.75,-36,36,37,0,0,0,0,0
1584021338000,-56,31,15,0,0,0,0,0
1584021338031.25,-65,31,7,0,0,0,0,0
1584021338062.5,-35,32,14,0,0,0,0,0
1584021338093.75,-48,34,26,0,0,0,0,0
1584021338125,-78,39,44,0,0,0,0,0
1584021338156.25,-62,34,36,0,0,0,0,0
1584021338187.5,-56,32,26,0,0,0,0,0
1584021338218.75,-57,29,3,0,0,0,0,0
1584021338250,-60,27,-5,0,0,0,0,0
1584021338281.25,-58,26,0,0,0,0,0,0
1584021338312.5,-52,25,12,0,0,0,0,0
1584021338343.75,-65,26,10,0,0,0,0,0
1584021338375,-42,39,34,0,0,0,0,0
1584021338406.25,-46,35,18,0,0,0,0,0
1584021338437.5,-61,32,17,0,0,0,0,0
1584021338468.75,-58,26,20,0,0,0,0,0
1584021338500,-55,27,30,0,0,0,0,0
1584021338531.25,-60,30,34,0,0,0,0,0
1584021338562.5,-54,33,24,0,0,0,0,0
1584021338593.75,-60,33,20,0,0,0,0,0
1584021338625,-43,27,17,0,0,0,0,0
1584021338656.25,-43,25,15,0,0,0,0,0
1584021338687.5,-46,20,14,0,0,0,0,0
1584021338718.75,-61,27,22,0,0,0,0,0
1584021338750,-65,28,29,0,0,0,0,0
1584021338781.25,-72,27,28,0,0,0,0,0
1584021338812.5,-61,25,28,0,0,0,0,0
1584021338843.75,-44,21,26,0,0,0,0,0
1584021338875,-48,20,20,0,0,0,0,0
1584021338906.25,-54,21,23,0,0,0,0,0
1584021338937.5,-65,25,29,0,0,0,0,0
1584021338968.75,-76,30,15,0,0,0,0,0
1584021339000,-88,32,8,0,0,0,0,0
1584021339031.25,-36,25,37,0,0,0,0,0
1584021339062.5,0,16,37,0,0,0,0,0
1584021339093.75,-49,23,67,0,0,0,0,0
1584021339125,-39,27,64,0,0,0,0,0
1584021339156.25,-42,21,35,0,0,0,0,0
1584021339187.5,-40,14,13,0,0,0,0,0
1584021339218.75,-40,14,12,0,0,0,0,0
1584021339250,-40,18,28,0,0,0,0,0
1584021339281.25,-61,24,27,0,0,0,0,0
1584021339312.5,-65,26,23,0,0,0,0,0
1584021339343.75,-67,26,23,0,0,0,0,0
1584021339375,-69,25,28,0,0,0,0,0
1584021339406.25,-57,26,32,0,0,0,0,0
1584021339437.5,-52,26,25,0,0,0,0,0
1584021339468.75,-59,24,22,0,0,0,0,0
1584021339500,-61,22,25,0,0,0,0,0
1584021339531.25,-55,21,31,0,0,0,0,0
1584021339562.5,-55,22,35,0,0,0,0,0
1584021339593.75,-34,19,43,0,0,0,0,0
1584021339625,-31,20,30,0,0,0,0,0
1584021339656.25,-47,29,22,0,0,0,0,0
1584021339687.5,-36,37,46,0,0,0,0,0
1584021339718.75,-46,35,43,0,0,0,0,0
1584021339750,-47,31,52,0,0,0,0,0
1584021339781.25,-42,28,48,0,0,0,0,0
1584021339812.5,-56,27,46,0,0,0,0,0
1584021339843.75,-56,24,38,0,0,0,0,0
1584021339875,-55,23,33,0,0,0,0,0
1584021339906.25,-30,23,48,0,0,0,0,0
1584021339937.5,-6,21,54,0,0,0,0,0
1584021339968.75,-11,21,45,0,0,0,0,0
1584021340000,-21,22,45,0,0,0,0,0
1584021340031.25,-8,21,53,0,0,0,0,0
1584021340062.5,-9,23,56,0,0,0,0,0
1584021340093.75,-5,27,70,0,0,0,0,0
1584021340125,3,25,75,0,0,0,0,0
1584021340156.25,5,14,65,0,0,0,0,0
1584021340187.5,12,11,52,0,0,0,0,0
1584021340218.75,36,13,57,0,0,0,0,0
1584021340250,35,16,54,0,0,0,0,0
1584021340281.25,32,23,63,0,0,0,0,0
1584021340312.5,-5,29,54,0,0,0,0,0
1584021340343.75,-8,21,61,0,0,0,0,0
1584021340375,-5,12,45,0,0,0,0,0
1584021340406.25,-7,8,42,0,0,0,0,0
1584021340437.5,-9,12,37,0,0,0,0,0
1584021340468.75,-15,23,55,0,0,0,0,0
1584021340500,-25,26,62,0,0,0,0,0
1584021340531.25,-20,21,62,0,0,0,0,0
1584021340562.5,-16,14,59,0,0,0,0,0
1584021340593.75,2,14,62,0,0,0,0,0
1584021340625,5,13,54,0,0,0,0,0
1584021340656.25,7,14,59,0,0,0,0,0
1584021340687.5,-13,21,55,0,0,0,0,0
1584021340718.75,-38,30,55,0,0,0,0,0
1584021340750,-18,32,65,0,0,0,0,0
1584021340781.25,-11,33,65,0,0,0,0,0
1584021340812.5,9,33,61,0,0,0,0,0
1584021340843.75,13,35,63,0,0,0,0,0
1584021340875,8,31,61,0,0,0,0,0
1584021340906.25,-15,24,54,0,0,0,0,0
1584021340937.5,-23,21,53,0,0,0,0,0
1584021340968.75,-37,15,49,0,0,0,0,0
1584021341000,-43,14,45,0,0,0,0,0
1584021341031.25,-43,16,50,0,0,0,0,0
1584021341062.5,-49,21,54,0,0,0,0,0
1584021341093.75,-52,23,49,0,0,0,0,0
1584021341125,-34,22,34,0,0,0,0,0
1584021341156.25,-27,21,37,0,0,0,0,0
1584021341187.5,-41,24,37,0,0,0,0,0
1584021341218.75,-44,28,42,0,0,0,0,0
1584021341250,-48,25,33,0,0,0,0,0
1584021341281.25,-56,20,14,0,0,0,0,0
1584021341312.5,-69,16,12,0,0,0,0,0
1584021341343.75,-67,15,23,0,0,0,0,0
1584021341375,-64,23,33,0,0,0,0,0
1584021341406.25,-62,24,32,0,0,0,0,0
1584021341437.5,-50,27,33,0,0,0,0,0
1584021341468.75,-55,28,33,0,0,0,0,0
1584021341500,-58,28,38,0,0,0,0,0
1584021341531.25,-64,24,53,0,0,0,0,0
1584021341562.5,-62,26,59,0,0,0,0,0
1584021341593.75,-59,28,55,0,0,0,0,0
1584021341625,-60,15,31,0,0,0,0,0
1584021341656.25,-48,17,26,0,0,0,0,0
1584021341687.5,-20,6,40,0,0,0,0,0
1584021341718.75,-24,2,50,0,0,0,0,0
1584021341750,-28,3,50,0,0,0,0,0
1584021341781.25,-25,0,47,0,0,0,0,0
1584021341812.5,-28,2,51,0,0,0,0,0
1584021341843.75,-19,0,64,0,0,0,0,0
1584021341875,-29,4,50,0,0,0,0,0
1584021341906.25,-41,5,39,0,0,0,0,0
1584021341937.5,-60,8,29,0,0,0,0,0
1584021341968.75,-61,11,30,0,0,0,0,0
1584021342000,-40,11,33,0,0,0,0,0
1584021342031.25,-64,13,52,0,0,0,0,0
1584021342062.5,-72,12,52,0,0,0,0,0
1584021342093.75,-86,-1,30,0,0,0,0,0
1584021342125,-74,-3,18,0,0,0,0,0
1584021342156.25,-71,-3,12,0,0,0,0,0
1584021342187.5,-71,-3,1,0,0,0,0,0
1584021342218.75,-68,-2,0,0,0,0,0,0
1584021342250,-59,1,6,0,0,0,0,0
1584021342281.25,-58,12,19,0,0,0,0,0
1584021342312.5,-53,13,19,0,0,0,0,0
1584021342343.75,-10,39,64,0,0,0,0,0
1584021342375,-28,44,48,0,0,0,0,0
1584021342406.25,-72,33,18,0,0,0,0,0
1584021342437.5,-56,11,30,0,0,0,0,0
1584021342468.75,-57,-1,31,0,0,0,0,0
1584021342500,-52,-17,41,0,0,0,0,0
1584021342531.25,-58,-21,34,0,0,0,0,0
1584021342562.5,-63,-19,33,0,0,0,0,0
1584021342593.75,-53,-11,41,0,0,0,0,0
1584021342625,-46,-9,42,0,0,0,0,0
1584021342656.25,-37,-9,44,0,0,0,0,0
1584021342687.5,-40,-8,41,0,0,0,0,0
1584021342718.75,-42,-6,36,0,0,0,0,0
1584021342750,-59,1,37,0,0,0,0,0
1584021342781.25,-63,3,40,0,0,0,0,0
1584021342812.5,-62,0,30,0,0,0,0,0
1584021342843.75,-64,2,32,0,0,0,0,0
1584021342875,-63,3,26,0,0,0,0,0
1584021342906.25,-68,9,22,0,0,0,0,0
1584021342937.5,-58,12,37,0,0,0,0,0
1584021342968.75,-57,14,29,0,0,0,0,0
1584021343000,-26,8,28,0,0,0,0,0
1584021343031.25,-27,9,23,0,0,0,0,0
1584021343062.5,-72,13,27,0,0,0,0,0
1584021343093.75,-67,11,32,0,0,0,0,0
1584021343125,-57,12,38,0,0,0,0,0
1584021343156.25,-53,18,35,0,0,0,0,0
1584021343187.5,-55,25,31,0,0,0,0,0
1584021343218.75,-29,10,24,0,0,0,0,0
1584021343250,-71,2,31,0,0,0,0,0
1584021343281.25,-95,10,21,0,0,0,0,0
1584021343312.5,-76,5,21,0,0,0,0,0
1584021343343.75,-77,13,21,0,0,0,0,0
1584021343375,-46,21,28,0,0,0,0,0
1584021343406.25,-35,6,25,0,0,0,0,0
1584021343437.5,-61,5,26,0,0,0,0,0
1584021343468.75,-80,-5,19,0,0,0,0,0
1584021343500,-71,-1,25,0,0,0,0,0
1584021343531.25,-65,6,27,0,0,0,0,0
1584021343562.5,-51,9,31,0,0,0,0,0
1584021343593.75,-52,10,29,0,0,0,0,0
1584021343625,-57,12,25,0,0,0,0,0
1584021343656.25,-50,10,24,0,0,0,0,0
1584021343687.5,-55,9,24,0,0,0,0,0
1584021343718.75,-57,5,28,0,0,0,0,0
1584021343750,-65,3,26,0,0,0,0,0
1584021343781.25,-63,-1,30,0,0,0,0,0
1584021343812.5,-62,4,28,0,0,0,0,0
1584021343843.75,-62,7,27,0,0,0,0,0
1584021343875,-53,8,28,0,0,0,0,0
1584021343906.25,-57,7,28,0,0,0,0,0
1584021343937.5,-57,5,27,0,0,0,0,0
1584021343968.75,-61,4,25,0,0,0,0,0
1584021344000,-62,6,26,0,0,0,0,0
1584021344031.25,-62,6,25,0,0,0,0,0
1584021344062.5,-61,5,26,0,0,0,0,0
1584021344093.75,-61,4,25,0,0,0,0,0
1584021344125,-60,4,25,0,0,0,0,0
1584021344156.25,-62,6,24,0,0,0,0,0
1584021344187.5,-63,9,26,0,0,0,0,0
1584021344218.75,-61,11,23,0,0,0,0,0
1584021344250,-66,10,21,0,0,0,0,0
1584021344281.25,-67,4,25,0,0,0,0,0
1584021344312.5,-55,2,23,0,0,0,0,0
1584021344343.75,-54,2,22,0,0,0,0,0
1584021344375,-60,9,20,0,0,0,0,0
1584021344406.25,-56,12,23,0,0,0,0,0
1584021344437.5,-48,16,18,0,0,0,0,0
1584021344468.75,-57,13,25,0,0,0,0,0
1584021344500,-59,5,20,0,0,0,0,0
1584021344531.25,-62,15,15,0,0,0,0,0
1584021344562.5,-66,20,13,0,0,0,0,0
1584021344593.75,-79,28,4,0,0,0,0,0
1584021344625,-87,26,4,0,0,0,0,0
1584021344656.25,-81,25,7,0,0,0,0,0
1584021344687.5,-72,17,9,0,0,0,0,0
1584021344718.75,-75,17,9,0,0,0,0,0
1584021344750,-57,17,22,0,0,0,0,0
1584021344781.25,-46,20,18,0,0,0,0,0
1584021344812.5,-47,22,19,0,0,0,0,0
1584021344843.75,-49,42,36,0,0,0,0,0
1584021344875,-45,54,32,0,0,0,0,0
1584021344906.25,-40,52,25,0,0,0,0,0
1584021344937.5,-35,49,19,0,0,0,0,0
1584021344968.75,-40,48,19,0,0,0,0,0
1584021345000,-47,36,26,0,0,0,0,0
1584021345031.25,-52,27,50,0,0,0,0,0
1584021345062.5,-49,26,48,0,0,0,0,0
1584021345093.75,-34,23,31,0,0,0,0,0
1584021345125,-24,18,29,0,0,0,0,0
1584021345156.25,-49,41,-4,0,0,0,0,0
1584021345187.5,-12,26,14,0,0,0,0,0
1584021345218.75,-27,32,-7,0,0,0,0,0
1584021345250,-29,26,-21,0,0,0,0,0
1584021345281.25,-81,41,-37,0,0,0,0,0
1584021345312.5,-87,45,-26,0,0,0,0,0
1584021345343.75,-79,64,9,0,0,0,0,0
1584021345375,-80,68,27,0,0,0,0,0
1584021345406.25,-64,53,47,0,0,0,0,0
1584021345437.5,-62,41,42,0,0,0,0,0
1584021345468.75,-54,37,34,0,0,0,0,0
1584021345500,123,19,126,0,0,0,0,0
1584021345531.25,96,42,127,0,0,0,0,0
1584021345562.5,-3,18,56,0,0,0,0,0
1584021345593.75,-46,7,7,0,0,0,0,0
1584021345625,-37,22,30,0,0,0,0,0
1584021345656.25,-48,48,67,0,0,0,0,0
1584021345687.5,-46,56,63,0,0,0,0,0
1584021345718.75,-45,51,35,0,0,0,0,0
1584021345750,-42,39,36,0,0,0,0,0
1584021345781.25,-33,35,35,0,0,0,0,0
1584021345812.5,-34,34,29,0,0,0,0,0
1584021345843.75,-35,38,32,0,0,0,0,0
1584021345875,-36,39,32,0,0,0,0,0
1584021345906.25,-36,38,30,0,0,0,0,0
1584021345937.5,-40,39,32,0,0,0,0,0
1584021345968.75,-44,48,38,0,0,0,0,0
1584021346000,-39,44,34,0,0,0,0,0
1584021346031.25,-40,42,35,0,0,0,0,0
1584021346062.5,-34,41,36,0,0,0,0,0
1584021346093.75,-35,39,34,0,0,0,0,0
1584021346125,-37,41,37,0,0,0,0,0
1584021346156.25,-35,39,37,0,0,0,0,0
1584021346187.5,-37,38,37,0,0,0,0,0
1584021346218.75,-37,40,38,0,0,0,0,0
1584021346250,-40,41,38,0,0,0,0,0
1584021346281.25,-41,41,39,0,0,0,0,0
1584021346312.5,-37,35,36,0,0,0,0,0
1584021346343.75,-33,35,38,0,0,0,0,0
1584021346375,-26,38,44,0,0,0,0,0
1584021346406.25,-29,37,45,0,0,0,0,0
1584021346437.5,-30,36,44,0,0,0,0,0
1584021346468.75,-33,36,44,0,0,0,0,0
1584021346500,-33,35,43,0,0,0,0,0
1584021346531.25,-31,33,39,0,0,0,0,0
1584021346562.5,-32,35,45,0,0,0,0,0
1584021346593.75,-30,35,45,0,0,0,0,0
1584021346625,-29,42,51,0,0,0,0,0
1584021346656.25,-26,49,72,0,0,0,0,0
1584021346687.5,-11,50,93,0,0,0,0,0
1584021346718.75,1,47,81,0,0,0,0,0
1584021346750,-12,42,60,0,0,0,0,0
1584021346781.25,-26,47,41,0,0,0,0,0
1584021346812.5,-42,40,19,0,0,0,0,0
1584021346843.75,-46,37,14,0,0,0,0,0
1584021346875,-70,18,-45,0,0,0,0,0
1584021346906.25,-43,19,-56,0,0,0,0,0
1584021346937.5,-24,37,-49,0,0,0,0,0
1584021346968.75,-24,54,-24,0,0,0,0,0
1584021347000,-22,55,-8,0,0,0,0,0
1584021347031.25,-22,60,13,0,0,0,0,0
1584021347062.5,-11,70,37,0,0,0,0,0
1584021347093.75,-6,72,37,0,0,0,0,0
1584021347125,3,69,52,0,0,0,0,0
1584021347156.25,3,72,34,0,0,0,0,0
1584021347187.5,5,73,3,0,0,0,0,0
1584021347218.75,-11,77,-12,0,0,0,0,0
1584021347250,-19,76,-13,0,0,0,0,0
1584021347281.25,-25,69,-16,0,0,0,0,0
1584021347312.5,-23,65,-16,0,0,0,0,0
1584021347343.75,-15,60,-11,0,0,0,0,0
1584021347375,-2,61,-4,0,0,0,0,0
1584021347406.25,-1,64,-4,0,0,0,0,0
1584021347437.5,-19,64,-12,0,0,0,0,0
1584021347468.75,-25,65,-15,0,0,0,0,0
1584021347500,-21,63,-14,0,0,0,0,0
1584021347531.25,-18,62,-13,0,0,0,0,0
1584021347562.5,-17,62,-12,0,0,0,0,0
1584021347593.75,-16,62,-13,0,0,0,0,0
1584021347625,-16,63,-15,0,0,0,0,0
1584021347656.25,-15,63,-14,0,0,0,0,0
1584021347687.5,-14,62,-15,0,0,0,0,0
1584021347718.75,-15,62,-15,0,0,0,0,0
1584021347750,-14,62,-15,0,0,0,0,0
1584021347781.25,-15,61,-15,0,0,0,0,0
1584021347812.5,-15,62,-15,0,0,0,0,0
1584021347843.75,-15,62,-15,0,0,0,0,0
1584021347875,-15,60,-14,0,0,0,0,0
1584021347906.25,-15,60,-14,0,0,0,0,0
1584021347937.5,-16,61,-14,0,0,0,0,0
1584021347968.75,-14,59,-13,0,0,0,0,0
1584021348000,-17,62,-15,0,0,0,0,0
1584021348031.25,-16,62,-15,0,0,0,0,0
1584021348062.5,-16,61,-14,0,0,0,0,0
1584021348093.75,-13,61,-14,0,0,0,0,0
1584021348125,-13,61,-15,0,0,0,0,0
1584021348156.25,-15,65,-16,0,0,0,0,0
1584021348187.5,-14,62,-18,0,0,0,0,0
1584021348218.75,-11,60,-17,0,0,0,0,0
1584021348250,-20,60,-13,0,0,0,0,0
1584021348281.25,-20,58,-11,0,0,0,0,0
1584021348312.5,-18,57,-13,0,0,0,0,0
1584021348343.75,-22,60,-17,0,0,0,0,0
1584021348375,-17,62,-14,0,0,0,0,0
1584021348406.25,-32,71,-26,0,0,0,0,0
1584021348437.5,-23,74,-31,0,0,0,0,0
1584021348468.75,-6,64,-35,0,0,0,0,0
1584021348500,11,58,-15,0,0,0,0,0
1584021348531.25,-4,60,-3,0,0,0,0,0
1584021348562.5,-15,58,-9,0,0,0,0,0
1584021348593.75,-11,55,-13,0,0,0,0,0
1584021348625,-13,52,-12,0,0,0,0,0
1584021348656.25,-15,50,-26,0,0,0,0,0
1584021348687.5,-16,54,-27,0,0,0,0,0
1584021348718.75,-23,64,-8,0,0,0,0,0
1584021348750,-20,61,-11,0,0,0,0,0
1584021348781.25,-21,62,-14,0,0,0,0,0
1584021348812.5,-9,62,-20,0,0,0,0,0
1584021348843.75,-5,62,-21,0,0,0,0,0
1584021348875,-23,65,-26,0,0,0,0,0
1584021348906.25,-38,71,-32,0,0,0,0,0
1584021348937.5,-7,67,-21,0,0,0,0,0
1584021348968.75,5,59,-11,0,0,0,0,0
1584021349000,-6,53,-16,0,0,0,0,0
1584021349031.25,-5,51,-20,0,0,0,0,0
1584021349062.5,-23,52,-27,0,0,0,0,0
1584021349093.75,-23,50,-28,0,0,0,0,0
1584021349125,-12,54,-23,0,0,0,0,0
1584021349156.25,-28,64,-18,0,0,0,0,0
1584021349187.5,-18,62,-16,0,0,0,0,0
1584021349218.75,-2,61,-1,0,0,0,0,0
1584021349250,-5,59,-3,0,0,0,0,0
1584021349281.25,-4,56,-12,0,0,0,0,0
1584021349312.5,-13,61,-25,0,0,0,0,0
1584021349343.75,-16,69,-25,0,0,0,0,0
1584021349375,-8,65,-22,0,0,0,0,0
1584021349406.25,-12,59,-22,0,0,0,0,0
1584021349437.5,-11,59,-27,0,0,0,0,0
1584021349468.75,1,60,-17,0,0,0,0,0
1584021349500,0,61,-12,0,0,0,0,0
1584021349531.25,-6,60,-17,0,0,0,0,0
1584021349562.5,-7,59,-19,0,0,0,0,0
1584021349593.75,-7,61,-20,0,0,0,0,0
1584021349625,-7,66,-24,0,0,0,0,0
1584021349656.25,-10,67,-26,0,0,0,0,0
1584021349687.5,6,66,-20,0,0,0,0,0
1584021349718.75,1,57,-12,0,0,0,0,0
1584021349750,-8,54,-17,0,0,0,0,0
1584021349781.25,-21,50,-28,0,0,0,0,0
1584021349812.5,-17,53,-26,0,0,0,0,0
1584021349843.75,0,60,-26,0,0,0,0,0
1584021349875,-19,59,-33,0,0,0,0,0
1584021349906.25,-11,54,-33,0,0,0,0,0
1584021349937.5,3,57,-25,0,0,0,0,0
1584021349968.75,-7,62,-22,0,0,0,0,0
1584021350000,-4,61,-22,0,0,0,0,0
1584021350031.25,2,64,-25,0,0,0,0,0
1584021350062.5,-2,64,-28,0,0,0,0,0
1584021350093.75,-4,59,-33,0,0,0,0,0
1584021350125,-8,58,-34,0,0,0,0,0
1584021350156.25,-10,58,-33,0,0,0,0,0
1584021350187.5,-11,56,-32,0,0,0,0,0
1584021350218.75,-12,56,-32,0,0,0,0,0
1584021350250,-12,56,-32,0,0,0,0,0
1584021350281.25,-13,55,-32,0,0,0,0,0
1584021350312.5,-13,55,-32,0,0,0,0,0
1584021350343.75,-12,55,-32,0,0,0,0,0
1584021350375,-12,54,-31,0,0,0,0,0
1584021350406.25,-13,55,-33,0,0,0,0,0
1584021350437.5,-13,55,-33,0,0,0,0,0
1584021350468.75,-13,55,-33,0,0,0,0,0
1584021350500,-13,53,-31,0,0,0,0,0
1584021350531.25,-15,55,-31,0,0,0,0,0
1584021350562.5,-14,54,-30,0,0,0,0,0
1584021350593.75,-14,53,-30,0,0,0,0,0
1584021350625,-15,56,-32,0,0,0,0,0
1584021350656.25,-13,59,-33,0,0,0,0,0
1584021350687.5,-11,56,-31,0,0,0,0,0
1584021350718.75,-11,58,-32,0,0,0,0,0
1584021350750,-10,61,-36,0,0,0,0,0
1584021350781.25,-1,66,-33,0,0,0,0,0
1584021350812.5,6,66,-24,0,0,0,0,0
1584021350843.75,19,61,-15,0,0,0,0,0
1584021350875,3,56,-30,0,0,0,0,0
1584021350906.25,-4,44,-45,0,0,0,0,0
1584021350937.5,10,54,-26,0,0,0,0,0
1584021350968.75,5,58,-27,0,0,0,0,0
1584021351000,-9,56,-25,0,0,0,0,0
1584021351031.25,-5,55,-23,0,0,0,0,0
1584021351062.5,-22,57,-26,0,0,0,0,0
1584021351093.75,0,62,-25,0,0,0,0,0
1584021351125,5,65,-23,0,0,0,0,0
1584021351156.25,1,64,-25,0,0,0,0,0
1584021351187.5,-9,63,-22,0,0,0,0,0
1584021351218.75,-25,63,-14,0,0,0,0,0
1584021351250,-20,57,-18,0,0,0,0,0
1584021351281.25,-13,56,-14,0,0,0,0,0
1584021351312.5,-31,53,-31,0,0,0,0,0
1584021351343.75,-63,65,-67,0,0,0,0,0
1584021351375,-67,61,-79,0,0,0,0,0
1584021351406.25,-11,56,-52,0,0,0,0,0
1584021351437.5,2,55,-32,0,0,0,0,0
1584021351468.75,18,54,-11,0,0,0,0,0
1584021351500,56,78,-8,0,0,0,0,0
1584021351531.25,53,88,-3,0,0,0,0,0
1584021351562.5,-56,81,-21,0,0,0,0,0
1584021351593.75,-49,61,-11,0,0,0,0,0
1584021351625,-31,44,-8,0,0,0,0,0
1584021351656.25,-30,52,-12,0,0,0,0,0
1584021351687.5,-30,57,-15,0,0,0,0,0
1584021351718.75,-32,63,-18,0,0,0,0,0
1584021351750,-29,55,-15,0,0,0,0,0
1584021351781.25,-28,53,-15,0,0,0,0,0
1584021351812.5,-29,53,-17,0,0,0,0,0
1584021351843.75,-30,54,-18,0,0,0,0,0
1584021351875,-32,57,-21,0,0,0,0,0
1584021351906.25,-31,56,-19,0,0,0,0,0
1584021351937.5,-31,56,-18,0,0,0,0,0
1584021351968.75,-31,55,-17,0,0,0,0,0
1584021352000,-31,53,-16,0,0,0,0,0
1584021352031.25,-33,54,-16,0,0,0,0,0
1584021352062.5,-33,54,-16,0,0,0,0,0
1584021352093.75,-32,54,-16,0,0,0,0,0
1584021352125,-33,54,-16,0,0,0,0,0
1584021352156.25,-33,55,-16,0,0,0,0,0
1584021352187.5,-33,55,-17,0,0,0,0,0
1584021352218.75,-33,54,-16,0,0,0,0,0
1584021352250,-32,54,-16,0,0,0,0,0
1584021352281.25,-32,54,-16,0,0,0,0,0
1584021352312.5,-33,54,-16,0,0,0,0,0
1584021352343.75,-33,54,-16,0,0,0,0,0
1584021352375,-35,58,-20,0,0,0,0,0
1584021352406.25,-34,58,-16,0,0,0,0,0
1584021352437.5,-32,54,-13,0,0,0,0,0
1584021352468.75,-36,50,-13,0,0,0,0,0
1584021352500,-36,49,-11,0,0,0,0,0
1584021352531.25,-34,49,-7,0,0,0,0,0
1584021352562.5,-34,52,-10,0,0,0,0,0
1584021352593.75,-34,53,-12,0,0,0,0,0
1584021352625,-34,55,-14,0,0,0,0,0
1584021352656.25,-35,55,-15,0,0,0,0,0
1584021352687.5,-34,54,-16,0,0,0,0,0
1584021352718.75,-34,55,-14,0,0,0,0,0
1584021352750,-35,56,-17,0,0,0,0,0
1584021352781.25,-33,56,-15,0,0,0,0,0
1584021352812.5,-33,55,-12,0,0,0,0,0
1584021352843.75,-33,54,-9,0,0,0,0,0
1584021352875,-34,53,-8,0,0,0,0,0
1584021352906.25,-34,53,-8,0,0,0,0,0
1584021352937.5,-34,55,-9,0,0,0,0,0
1584021352968.75,-35,55,-10,0,0,0,0,0
1584021353000,-34,55,-9,0,0,0,0,0
1584021353031.25,-33,54,-8,0,0,0,0,0
1584021353062.5,-34,54,-8,0,0,0,0,0
1584021353093.75,-33,55,-7,0,0,0,0,0
1584021353125,-34,55,-9,0,0,0,0,0
1584021353156.25,-35,55,-9,0,0,0,0,0
1584021353187.5,-34,56,-8,0,0,0,0,0
1584021353218.75,-35,55,-7,0,0,0,0,0
1584021353250,-34,54,-6,0,0,0,0,0
1584021353281.25,-34,55,-5,0,0,0,0,0
1584021353312.5,-34,55,-5,0,0,0,0,0
1584021353343.75,-35,54,-5,0,0,0,0,0
1584021353375,-34,54,-3,0,0,0,0,0
1584021353406.25,-34,54,-4,0,0,0,0,0
1584021353437.5,-34,54,-3,0,0,0,0,0
1584021353468.75,-34,54,-4,0,0,0,0,0
1584021353500,-35,55,-5,0,0,0,0,0
1584021353531.25,-35,55,-5,0,0,0,0,0
1584021353562.5,-35,55,-5,0,0,0,0,0
1584021353593.75,-35,55,-4,0,0,0,0,0
1584021353625,-35,55,-4,0,0,0,0,0
1584021353656.25,-35,54,-4,0,0,0,0,0
1584021353687.5,-35,54,-3,0,0,0,0,0
1584021353718.75,-35,54,-4,0,0,0,0,0
1584021353750,-35,55,-4,0,0,0,0,0
1584021353781.25,-35,55,-4,0,0,0,0,0
1584021353812.5,-35,55,-4,0,0,0,0,0
1584021353843.75,-35,55,-4,0,0,0,0,0
1584021353875,-36,55,-3,0,0,0,0,0
1584021353906.25,-35,54,-3,0,0,0,0,0
1584021353937.5,-35,54,-3,0,0,0,0,0
1584021353968.75,-36,54,-3,0,0,0,0,0
1584021354000,-36,54,-3,0,0,0,0,0
1584021354031.25,-35,54,-3,0,0,0,0,0
1584021354062.5,-35,54,-3,0,0,0,0,0
1584021354093.75,-35,54,-3,0,0,0,0,0
1584021354125,-35,54,-3,0,0,0,0,0
1584021354156.25,-36,54,-4,0,0,0,0,0
1584021354187.5,-36,54,-4,0,0,0,0,0
1584021354218.75,-36,54,-4,0,0,0,0,0
1584021354250,-36,54,-5,0,0,0,0,0
1584021354281.25,-36,54,-4,0,0,0,0,0
1584021354312.5,-36,55,-4,0,0,0,0,0
1584021354343.75,-36,54,-4,0,0,0,0,0
1584021354375,-36,54,-4,0,0,0,0,0
1584021354406.25,-35,54,-3,0,0,0,0,0
1584021354437.5,-35,54,-3,0,0,0,0,0
1584021354468.75,-35,54,-4,0,0,0,0,0
1584021354500,-35,54,-4,0,0,0,0,0
1584021354531.25,-35,54,-3,0,0,0,0,0
1584021354562.5,-35,54,-4,0,0,0,0,0
1584021354593.75,-35,55,-4,0,0,0,0,0
1584021354625,-35,55,-4,0,0,0,0,0
1584021354656.25,-35,55,-4,0,0,0,0,0
1584021354687.5,-35,55,-4,0,0,0,0,0
1584021354718.75,-35,55,-4,0,0,0,0,0
1584021354750,-35,55,-4,0,0,0,0,0
1584021354781.25,-34,54,-4,0,0,0,0,0
1584021354812.5,-35,55,-4,0,0,0,0,0
1584021354843.75,-35,55,-4,0,0,0,0,0
1584021354875,-35,55,-4,0,0,0,0,0
1584021354906.25,-35,54,-4,0,0,0,0,0
1584021354937.5,-34,54,-3,0,0,0,0,0
1584021354968.75,-34,55,-4,0,0,0,0,0
1584021355000,-32,54,-4,0,0,0,0,0
1584021355031.25,-32,55,-4,0,0,0,0,0
1584021355062.5,-33,55,-6,0,0,0,0,0
1584021355093.75,-34,57,-8,0,0,0,0,0
1584021355125,-33,56,-7,0,0,0,0,0
1584021355156.25,-32,55,-6,0,0,0,0,0
1584021355187.5,-33,55,-6,0,0,0,0,0
1584021355218.75,-33,56,-8,0,0,0,0,0
1584021355250,-33,57,-8,0,0,0,0,0
1584021355281.25,-33,57,-8,0,0,0,0,0
1584021355312.5,-32,56,-8,0,0,0,0,0
1584021355343.75,-31,55,-8,0,0,0,0,0
1584021355375,-32,55,-8,0,0,0,0,0
1584021355406.25,-32,56,-9,0,0,0,0,0
1584021355437.5,-32,56,-8,0,0,0,0,0
1584021355468.75,-30,55,-8,0,0,0,0,0
1584021355500,-33,56,-9,0,0,0,0,0
1584021355531.25,-33,57,-9,0,0,0,0,0
1584021355562.5,-32,56,-8,0,0,0,0,0
1584021355593.75,-32,56,-8,0,0,0,0,0
1584021355625,-31,55,-8,0,0,0,0,0
1584021355656.25,-31,55,-8,0,0,0,0,0
1584021355687.5,-31,55,-8,0,0,0,0,0
1584021355718.75,-32,56,-9,0,0,0,0,0
1584021355750,-32,56,-9,0,0,0,0,0
1584021355781.25,-32,56,-9,0,0,0,0,0
1584021355812.5,-32,56,-9,0,0,0,0,0
1584021355843.75,-31,56,-8,0,0,0,0,0
1584021355875,-31,56,-9,0,0,0,0,0
1584021355906.25,-31,56,-9,0,0,0,0,0
1584021355937.5,-31,56,-9,0,0,0,0,0
1584021355968.75,-31,56,-8,0,0,0,0,0
1584021356000,-31,56,-9,0,0,0,0,0
1584021356031.25,-31,56,-9,0,0,0,0,0
1584021356062.5,-31,56,-8,0,0,0,0,0
1584021356093.75,-31,56,-8,0,0,0,0,0
1584021356125,-31,56,-9,0,0,0,0,0
1584021356156.25,-31,56,-9,0,0,0,0,0
1584021356187.5,-31,56,-8,0,0,0,0,0
1584021356218.75,-31,56,-9,0,0,0,0,0
1584021356250,-31,56,-9,0,0,0,0,0
1584021356281.25,-31,56,-9,0,0,0,0,0
1584021356312.5,-31,56,-9,0,0,0,0,0
1584021356343.75,-31,56,-9,0,0,0,0,0
1584021356375,-31,56,-9,0,0,0,0,0
1584021356406.25,-31,56,-8,0,0,0,0,0
1584021356437.5,-31,56,-8,0,0,0,0,0
1584021356468.75,-31,56,-8,0,0,0,0,0
1584021356500,-31,56,-8,0,0,0,0,0
1584021356531.25,-31,56,-9,0,0,0,0,0
1584021356562.5,-31,56,-9,0,0,0,0,0
1584021356593.75,-31,56,-8,0,0,0,0,0
1584021356625,-31,56,-9,0,0,0,0,0
1584021356656.25,-31,56,-8,0,0,0,0,0
1584021356687.5,-31,56,-9,0,0,0,0,0
1584021356718.75,-31,56,-8,0,0,0,0,0
1584021356750,-30,56,-8,0,0,0,0,0
1584021356781.25,-30,56,-8,0,0,0,0,0
1584021356812.5,-31,56,-9,0,0,0,0,0
1584021356843.75,-31,57,-9,0,0,0,0,0
1584021356875,-31,57,-9,0,0,0,0,0
1584021356906.25,-31,57,-9,0,0,0,0,0
1584021356937.5,-30,57,-9,0,0,0,0,0
1584021356968.75,-30,56,-9,0,0,0,0,0
1584021357000,-30,56,-9,0,0,0,0,0
1584021357031.25,-30,57,-9,0,0,0,0,0
1584021357062.5,-30,56,-9,0,0,0,0,0
1584021357093.75,-30,57,-9,0,0,0,0,0
1584021357125,-30,57,-9,0,0,0,0,0
1584021357156.25,-30,56,-9,0,0,0,0,0
1584021357187.5,-30,56,-9,0,0,0,0,0
1584021357218.75,-30,56,-9,0,0,0,0,0
1584021357250,-30,57,-9,0,0,0,0,0
1584021357281.25,-30,57,-9,0,0,0,0,0
1584021357312.5,-30,56,-9,0,0,0,0,0
1584021357343.75,-30,57,-9,0,0,0,0,0
1584021357375,-30,57,-9,0,0,0,0,0
1584021357406.25,-30,57,-9,0,0,0,0,0
1584021357437.5,-30,56,-9,0,0,0,0,0
1584021357468.75,-30,56,-9,0,0,0,0,0
1584021357500,-30,56,-9,0,0,0,0,0
1584021357531.25,-31,58,-10,0,0,0,0,0
1584021357562.5,-30,57,-9,0,0,0,0,0
1584021357593.75,-29,57,-8,0,0,0,0,0
1584021357625,-29,56,-7,0,0,0,0,0
1584021357656.25,-28,56,-7,0,0,0,0,0
1584021357687.5,-29,57,-8,0,0,0,0,0
1584021357718.75,-30,57,-11,0,0,0,0,0
1584021357750,-29,57,-11,0,0,0,0,0
1584021357781.25,-28,57,-12,0,0,0,0,0
1584021357812.5,-29,59,-12,0,0,0,0,0
1584021357843.75,-29,59,-11,0,0,0,0,0
1584021357875,-29,57,-10,0,0,0,0,0
1584021357906.25,-30,56,-9,0,0,0,0,0
1584021357937.5,-30,56,-9,0,0,0,0,0
1584021357968.75,-30,56,-9,0,0,0,0,0
1584021358000,-31,56,-9,0,0,0,0,0
1584021358031.25,-31,56,-10,0,0,0,0,0
1584021358062.5,-30,55,-9,0,0,0,0,0
1584021358093.75,-31,56,-9,0,0,0,0,0
1584021358125,-31,56,-9,0,0,0,0,0
1584021358156.25,-31,56,-9,0,0,0,0,0
1584021358187.5,-31,56,-9,0,0,0,0,0
1584021358218.75,-31,56,-10,0,0,0,0,0
1584021358250,-31,56,-10,0,0,0,0,0
1584021358281.25,-31,56,-10,0,0,0,0,0
1584021358312.5,-31,56,-10,0,0,0,0,0
1584021358343.75,-31,56,-10,0,0,0,0,0
1584021358375,-31,56,-10,0,0,0,0,0
1584021358406.25,-31,56,-10,0,0,0,0,0
1584021358437.5,-31,56,-10,0,0,0,0,0
1584021358468.75,-31,56,-10,0,0,0,0,0
1584021358500,-31,56,-10,0,0,0,0,0
1584021358531.25,-31,56,-10,0,0,0,0,0
1584021358562.5,-31,56,-10,0,0,0,0,0
1584021358593.75,-31,56,-10,0,0,0,0,0
1584021358625,-31,56,-10,0,0,0,0,0
1584021358656.25,-30,56,-10,0,0,0,0,0
1584021358687.5,-30,57,-11,0,0,0,0,0
1584021358718.75,-30,57,-11,0,0,0,0,0
1584021358750,-29,56,-10,0,0,0,0,0
1584021358781.25,-29,56,-10,0,0,0,0,0
1584021358812.5,-28,55,-9,0,0,0,0,0
1584021358843.75,-26,53,-9,0,0,0,0,0
1584021358875,-27,55,-9,0,0,0,0,0
1584021358906.25,-25,57,-12,0,0,0,0,0
1584021358937.5,-26,62,-15,0,0,0,0,0
1584021358968.75,-26,62,-16,0,0,0,0,0
1584021359000,-25,60,-16,0,0,0,0,0
1584021359031.25,-22,58,-13,0,0,0,0,0
1584021359062.5,-23,59,-13,0,0,0,0,0
1584021359093.75,-23,59,-12,0,0,0,0,0
1584021359125,-24,59,-12,0,0,0,0,0
1584021359156.25,-24,58,-12,0,0,0,0,0
1584021359187.5,-24,58,-11,0,0,0,0,0
1584021359218.75,-24,59,-12,0,0,0,0,0
1584021359250,-25,60,-12,0,0,0,0,0
1584021359281.25,-24,60,-11,0,0,0,0,0
1584021359312.5,-24,59,-12,0,0,0,0,0
1584021359343.75,-24,59,-12,0,0,0,0,0
1584021359375,-23,58,-11,0,0,0,0,0
1584021359406.25,-23,58,-11,0,0,0,0,0
1584021359437.5,-23,59,-12,0,0,0,0,0
1584021359468.75,-23,58,-12,0,0,0,0,0
1584021359500,-24,59,-12,0,0,0,0,0
1584021359531.25,-24,59,-12,0,0,0,0,0
1584021359562.5,-24,59,-12,0,0,0,0,0
1584021359593.75,-25,60,-12,0,0,0,0,0
1584021359625,-25,60,-12,0,0,0,0,0
1584021359656.25,-24,58,-12,0,0,0,0,0
1584021359687.5,-24,58,-12,0,0,0,0,0
1584021359718.75,-25,59,-12,0,0,0,0,0
1584021359750,-24,58,-12,0,0,0,0,0
1584021359781.25,-24,58,-12,0,0,0,0,0
1584021359812.5,-25,58,-11,0,0,0,0,0
1584021359843.75,-25,59,-11,0,0,0,0,0
1584021359875,-24,58,-11,0,0,0,0,0
1584021359906.25,-24,58,-11,0,0,0,0,0
1584021359937.5,-24,59,-11,0,0,0,0,0
1584021359968.75,-24,58,-12,0,0,0,0,0
1584021360000,-25,59,-13,0,0,0,0,0
1584021360031.25,-25,59,-14,0,0,0,0,0
1584021360062.5,-24,60,-14,0,0,0,0,0
1584021360093.75,-24,59,-14,0,0,0,0,0
1584021360125,-24,59,-13,0,0,0,0,0
1584021360156.25,-25,59,-13,0,0,0,0,0
1584021360187.5,-25,59,-13,0,0,0,0,0
1584021360218.75,-25,59,-12,0,0,0,0,0
1584021360250,-24,58,-12,0,0,0,0,0
1584021360281.25,-24,58,-12,0,0,0,0,0
1584021360312.5,-24,59,-12,0,0,0,0,0
1584021360343.75,-23,58,-12,0,0,0,0,0
1584021360375,-23,58,-13,0,0,0,0,0
1584021360406.25,-24,59,-13,0,0,0,0,0
1584021360437.5,-24,60,-13,0,0,0,0,0
1584021360468.75,-24,59,-12,0,0,0,0,0
1584021360500,-24,59,-12,0,0,0,0,0
1584021360531.25,-24,59,-12,0,0,0,0,0
1584021360562.5,-23,58,-11,0,0,0,0,0
1584021360593.75,-23,58,-12,0,0,0,0,0
1584021360625,-24,59,-12,0,0,0,0,0
1584021360656.25,-23,59,-12,0,0,0,0,0
1584021360687.5,-24,59,-12,0,0,0,0,0
1584021360718.75,-24,60,-12,0,0,0,0,0
1584021360750,-24,59,-12,0,0,0,0,0
1584021360781.25,-23,60,-13,0,0,0,0,0
1584021360812.5,-22,59,-12,0,0,0,0,0
1584021360843.75,-22,59,-12,0,0,0,0,0
1584021360875,-22,60,-13,0,0,0,0,0
1584021360906.25,-22,60,-13,0,0,0,0,0
1584021360937.5,-23,60,-12,0,0,0,0,0
1584021360968.75,-22,60,-11,0,0,0,0,0
1584021361000,-22,59,-11,0,0,0,0,0
1584021361031.25,-22,59,-10,0,0,0,0,0
1584021361062.5,-22,59,-11,0,0,0,0,0
1584021361093.75,-22,59,-11,0,0,0,0,0
1584021361125,-23,60,-12,0,0,0,0,0
1584021361156.25,-22,60,-12,0,0,0,0,0
1584021361187.5,-22,60,-12,0,0,0,0,0
1584021361218.75,-21,59,-13,0,0,0,0,0
1584021361250,-21,60,-13,0,0,0,0,0
1584021361281.25,-22,60,-13,0,0,0,0,0
1584021361312.5,-22,60,-13,0,0,0,0,0
1584021361343.75,-22,60,-13,0,0,0,0,0
1584021361375,-22,60,-12,0,0,0,0,0
1584021361406.25,-22,60,-12,0,0,0,0,0
1584021361437.5,-22,59,-12,0,0,0,0,0
1584021361468.75,-22,59,-12,0,0,0,0,0
1584021361500,-22,60,-12,0,0,0,0,0
1584021361531.25,-22,60,-12,0,0,0,0,0
1584021361562.5,-22,60,-12,0,0,0,0,0
1584021361593.75,-21,60,-12,0,0,0,0,0
1584021361625,-21,60,-12,0,0,0,0,0
1584021361656.25,-22,59,-13,0,0,0,0,0
1584021361687.5,-22,60,-13,0,0,0,0,0
1584021361718.75,-22,59,-13,0,0,0,0,0
1584021361750,-22,59,-10,0,0,0,0,0
1584021361781.25,-24,59,-10,0,0,0,0,0
1584021361812.5,-24,59,-10,0,0,0,0,0
1584021361843.75,-24,60,-12,0,0,0,0,0
1584021361875,-24,61,-12,0,0,0,0,0
1584021361906.25,-23,60,-12,0,0,0,0,0
1584021361937.5,-22,60,-10,0,0,0,0,0
1584021361968.75,-21,60,-10,0,0,0,0,0
1584021362000,-16,56,-6,0,0,0,0,0
1584021362031.25,-23,62,-10,0,0,0,0,0
1584021362062.5,-18,65,-10,0,0,0,0,0
1584021362093.75,-16,64,-6,0,0,0,0,0
1584021362125,-16,62,-4,0,0,0,0,0
1584021362156.25,-15,58,-2,0,0,0,0,0
1584021362187.5,-15,59,-3,0,0,0,0,0
1584021362218.75,-12,61,-3,0,0,0,0,0
1584021362250,-12,63,-4,0,0,0,0,0
1584021362281.25,-11,64,-4,0,0,0,0,0
1584021362312.5,-10,64,-6,0,0,0,0,0
1584021362343.75,-10,63,-7,0,0,0,0,0
1584021362375,-10,65,-7,0,0,0,0,0
1584021362406.25,-11,66,-7,0,0,0,0,0
1584021362437.5,-11,64,-6,0,0,0,0,0
1584021362468.75,-11,60,-4,0,0,0,0,0
1584021362500,-12,61,-5,0,0,0,0,0
1584021362531.25,-12,62,-6,0,0,0,0,0
1584021362562.5,-12,63,-7,0,0,0,0,0
1584021362593.75,-12,63,-9,0,0,0,0,0
1584021362625,-12,64,-10,0,0,0,0,0
1584021362656.25,-13,65,-11,0,0,0,0,0
1584021362687.5,-13,65,-10,0,0,0,0,0
1584021362718.75,-13,62,-9,0,0,0,0,0
1584021362750,-14,62,-8,0,0,0,0,0
1584021362781.25,-13,62,-8,0,0,0,0,0
1584021362812.5,-14,62,-9,0,0,0,0,0
1584021362843.75,-14,62,-9,0,0,0,0,0
1584021362875,-15,62,-9,0,0,0,0,0
1584021362906.25,-15,62,-9,0,0,0,0,0
1584021362937.5,-15,61,-8,0,0,0,0,0
1584021362968.75,-16,62,-9,0,0,0,0,0
1584021363000,-16,61,-8,0,0,0,0,0
1584021363031.25,-17,62,-9,0,0,0,0,0
1584021363062.5,-17,62,-9,0,0,0,0,0
1584021363093.75,-17,61,-9,0,0,0,0,0
1584021363125,-18,61,-9,0,0,0,0,0
1584021363156.25,-17,61,-9,0,0,0,0,0
1584021363187.5,-17,61,-9,0,0,0,0,0
1584021363218.75,-17,62,-10,0,0,0,0,0
1584021363250,-17,63,-11,0,0,0,0,0
1584021363281.25,-17,62,-10,0,0,0,0,0
1584021363312.5,-17,62,-10,0,0,0,0,0
1584021363343.75,-17,62,-10,0,0,0,0,0
1584021363375,-17,62,-10,0,0,0,0,0
1584021363406.25,-17,62,-10,0,0,0,0,0
1584021363437.5,-17,62,-11,0,0,0,0,0
1584021363468.75,-16,61,-10,0,0,0,0,0
1584021363500,-16,61,-10,0,0,0,0,0
1584021363531.25,-16,62,-10,0,0,0,0,0
1584021363562.5,-16,61,-10,0,0,0,0,0
1584021363593.75,-17,62,-9,0,0,0,0,0
1584021363625,-16,62,-9,0,0,0,0,0
1584021363656.25,-15,62,-9,0,0,0,0,0
1584021363687.5,-15,64,-9,0,0,0,0,0
1584021363718.75,-12,64,-8,0,0,0,0,0
1584021363750,-12,61,-8,0,0,0,0,0
1584021363781.25,-11,61,-7,0,0,0,0,0
1584021363812.5,-10,60,-6,0,0,0,0,0
1584021363843.75,-8,61,-7,0,0,0,0,0
1584021363875,-8,64,-8,0,0,0,0,0
1584021363906.25,-7,65,-9,0,0,0,0,0
1584021363937.5,-7,64,-9,0,0,0,0,0
1584021363968.75,-5,64,-9,0,0,0,0,0
1584021364000,-6,64,-8,0,0,0,0,0
1584021364031.25,-7,64,-8,0,0,0,0,0
1584021364062.5,-8,64,-8,0,0,0,0,0
1584021364093.75,-7,65,-7,0,0,0,0,0
1584021364125,-6,63,-6,0,0,0,0,0
1584021364156.25,-8,62,-6,0,0,0,0,0
1584021364187.5,-10,61,-6,0,0,0,0,0
1584021364218.75,-8,61,-5,0,0,0,0,0
1584021364250,-9,62,-7,0,0,0,0,0
1584021364281.25,-9,63,-9,0,0,0,0,0
1584021364312.5,-8,63,-9,0,0,0,0,0
1584021364343.75,-9,63,-10,0,0,0,0,0
1584021364375,-10,65,-11,0,0,0,0,0
1584021364406.25,-10,65,-11,0,0,0,0,0
1584021364437.5,-10,65,-11,0,0,0,0,0
1584021364468.75,-10,64,-11,0,0,0,0,0
1584021364500,-10,62,-10,0,0,0,0,0
1584021364531.25,-10,62,-10,0,0,0,0,0
1584021364562.5,-10,61,-10,0,0,0,0,0
1584021364593.75,-10,62,-10,0,0,0,0,0
1584021364625,-10,63,-11,0,0,0,0,0
1584021364656.25,-12,65,-11,0,0,0,0,0
1584021364687.5,-12,63,-10,0,0,0,0,0
1584021364718.75,-13,63,-9,0,0,0,0,0
1584021364750,-13,63,-8,0,0,0,0,0
1584021364781.25,-13,63,-9,0,0,0,0,0
1584021364812.5,-13,62,-8,0,0,0,0,0
1584021364843.75,-11,60,-7,0,0,0,0,0
1584021364875,-11,60,-8,0,0,0,0,0
1584021364906.25,-8,61,-6,0,0,0,0,0
1584021364937.5,3,56,-3,0,0,0,0,0
1584021364968.75,0,62,-9,0,0,0,0,0
1584021365000,-2,68,-13,0,0,0,0,0
1584021365031.25,-5,68,-12,0,0,0,0,0
1584021365062.5,-17,65,-5,0,0,0,0,0
1584021365093.75,-18,69,-6,0,0,0,0,0
1584021365125,-3,68,-7,0,0,0,0,0
1584021365156.25,-1,60,-6,0,0,0,0,0
1584021365187.5,1,65,-11,0,0,0,0,0
1584021365218.75,2,67,-13,0,0,0,0,0
1584021365250,3,66,-14,0,0,0,0,0
1584021365281.25,4,65,-13,0,0,0,0,0
1584021365312.5,4,61,-12,0,0,0,0,0
1584021365343.75,3,59,-10,0,0,0,0,0
1584021365375,4,63,-12,0,0,0,0,0
1584021365406.25,4,63,-13,0,0,0,0,0
1584021365437.5,4,62,-13,0,0,0,0,0
1584021365468.75,3,62,-14,0,0,0,0,0
1584021365500,3,64,-15,0,0,0,0,0
1584021365531.25,3,67,-16,0,0,0,0,0
1584021365562.5,5,65,-14,0,0,0,0,0
1584021365593.75,5,63,-13,0,0,0,0,0
1584021365625,6,63,-12,0,0,0,0,0
1584021365656.25,7,62,-13,0,0,0,0,0
1584021365687.5,7,63,-14,0,0,0,0,0
1584021365718.75,7,62,-13,0,0,0,0,0
1584021365750,7,61,-14,0,0,0,0,0
1584021365781.25,7,62,-14,0,0,0,0,0
1584021365812.5,6,62,-13,0,0,0,0,0
1584021365843.75,5,63,-13,0,0,0,0,0
1584021365875,5,63,-13,0,0,0,0,0
1584021365906.25,3,59,-11,0,0,0,0,0
1584021365937.5,3,59,-11,0,0,0,0,0
1584021365968.75,1,62,-11,0,0,0,0,0
1584021366000,1,63,-12,0,0,0,0,0
1584021366031.25,1,67,-15,0,0,0,0,0
1584021366062.5,3,66,-15,0,0,0,0,0
1584021366093.75,2,63,-14,0,0,0,0,0
1584021366125,2,64,-14,0,0,0,0,0
1584021366156.25,3,65,-14,0,0,0,0,0
1584021366187.5,2,65,-14,0,0,0,0,0
1584021366218.75,4,62,-13,0,0,0,0,0
1584021366250,3,65,-14,0,0,0,0,0
1584021366281.25,3,68,-15,0,0,0,0,0
1584021366312.5,2,69,-13,0,0,0,0,0
1584021366343.75,2,70,-15,0,0,0,0,0
1584021366375,4,67,-12,0,0,0,0,0
1584021366406.25,5,64,-8,0,0,0,0,0
1584021366437.5,11,53,2,0,0,0,0,0
1584021366468.75,-4,54,6,0,0,0,0,0
1584021366500,-14,57,6,0,0,0,0,0
1584021366531.25,-8,61,6,0,0,0,0,0
1584021366562.5,-3,63,4,0,0,0,0,0
1584021366593.75,1,61,3,0,0,0,0,0
1584021366625,2,58,0,0,0,0,0,0
1584021366656.25,4,62,-3,0,0,0,0,0
1584021366687.5,6,68,-5,0,0,0,0,0
1584021366718.75,8,70,-6,0,0,0,0,0
1584021366750,6,66,-5,0,0,0,0,0
1584021366781.25,8,60,-3,0,0,0,0,0
1584021366812.5,10,59,-4,0,0,0,0,0
1584021366843.75,9,60,-5,0,0,0,0,0
1584021366875,8,63,-7,0,0,0,0,0
1584021366906.25,9,64,-7,0,0,0,0,0
1584021366937.5,13,59,-6,0,0,0,0,0
1584021366968.75,13,57,-5,0,0,0,0,0
1584021367000,13,67,-8,0,0,0,0,0
1584021367031.25,13,67,-7,0,0,0,0,0
1584021367062.5,14,64,-6,0,0,0,0,0
1584021367093.75,13,62,-7,0,0,0,0,0
1584021367125,16,63,-8,0,0,0,0,0
1584021367156.25,16,62,-7,0,0,0,0,0
1584021367187.5,18,61,-7,0,0,0,0,0
1584021367218.75,19,61,-8,0,0,0,0,0
1584021367250,19,60,-7,0,0,0,0,0
1584021367281.25,20,61,-8,0,0,0,0,0
1584021367312.5,21,60,-8,0,0,0,0,0
1584021367343.75,22,59,-8,0,0,0,0,0
1584021367375,23,57,-7,0,0,0,0,0
1584021367406.25,30,49,-4,0,0,0,0,0
1584021367437.5,14,62,-10,0,0,0,0,0
1584021367468.75,19,67,-13,0,0,0,0,0
1584021367500,27,67,-10,0,0,0,0,0
1584021367531.25,29,62,-9,0,0,0,0,0
1584021367562.5,25,62,-10,0,0,0,0,0
1584021367593.75,18,60,-9,0,0,0,0,0
1584021367625,18,67,-7,0,0,0,0,0
1584021367656.25,28,45,-6,0,0,0,0,0
1584021367687.5,5,64,-14,0,0,0,0,0
1584021367718.75,11,67,-13,0,0,0,0,0
1584021367750,0,69,-13,0,0,0,0,0
1584021367781.25,0,71,-12,0,0,0,0,0
1584021367812.5,1,64,-11,0,0,0,0,0
1584021367843.75,-5,65,-10,0,0,0,0,0
1584021367875,-2,66,-10,0,0,0,0,0
1584021367906.25,-6,65,-9,0,0,0,0,0
1584021367937.5,-6,57,-5,0,0,0,0,0
1584021367968.75,-9,56,-5,0,0,0,0,0
1584021368000,-15,65,-7,0,0,0,0,0
1584021368031.25,-13,65,-5,0,0,0,0,0
1584021368062.5,-20,60,-2,0,0,0,0,0
1584021368093.75,-21,62,-2,0,0,0,0,0
1584021368125,-19,61,-2,0,0,0,0,0
1584021368156.25,-21,60,-1,0,0,0,0,0
1584021368187.5,-21,57,0,0,0,0,0,0
1584021368218.75,-24,60,-1,0,0,0,0,0
1584021368250,-23,57,0,0,0,0,0,0
1584021368281.25,-26,60,-1,0,0,0,0,0
1584021368312.5,-24,58,0,0,0,0,0,0
1584021368343.75,-25,58,0,0,0,0,0,0
1584021368375,-26,58,0,0,0,0,0,0
1584021368406.25,-28,58,1,0,0,0,0,0
1584021368437.5,-29,58,0,0,0,0,0,0
1584021368468.75,-28,60,0,0,0,0,0,0
1584021368500,-27,60,-1,0,0,0,0,0
1584021368531.25,-28,62,-2,0,0,0,0,0
1584021368562.5,-33,69,-9,0,0,0,0,0
1584021368593.75,-36,74,-17,0,0,0,0,0
1584021368625,-21,66,-9,0,0,0,0,0
1584021368656.25,0,71,-1,0,0,0,0,0
1584021368687.5,-2,67,-1,0,0,0,0,0
1584021368718.75,-28,56,-11,0,0,0,0,0
1584021368750,-27,57,-11,0,0,0,0,0
1584021368781.25,3,54,17,0,0,0,0,0
1584021368812.5,-25,41,-3,0,0,0,0,0
1584021368843.75,-24,32,0,0,0,0,0,0
1584021368875,-3,12,1,0,0,0,0,0
1584021368906.25,-2,60,-61,0,0,0,0,0
1584021368937.5,-9,77,-58,0,0,0,0,0
1584021368968.75,10,114,-40,0,0,0,0,0
1584021369000,6,69,-21,0,0,0,0,0
1584021369031.25,6,52,-12,0,0,0,0,0
1584021369062.5,-2,53,-11,0,0,0,0,0
1584021369093.75,4,57,-13,0,0,0,0,0
1584021369125,8,66,-16,0,0,0,0,0
1584021369156.25,9,68,-15,0,0,0,0,0
1584021369187.5,6,60,-11,0,0,0,0,0
1584021369218.75,11,58,-11,0,0,0,0,0
1584021369250,10,62,-12,0,0,0,0,0
1584021369281.25,13,66,-11,0,0,0,0,0
1584021369312.5,13,63,-11,0,0,0,0,0
1584021369343.75,10,63,-9,0,0,0,0,0
1584021369375,15,65,-11,0,0,0,0,0
1584021369406.25,16,65,-12,0,0,0,0,0
1584021369437.5,15,60,-12,0,0,0,0,0
1584021369468.75,16,58,-10,0,0,0,0,0
1584021369500,15,61,-11,0,0,0,0,0
1584021369531.25,16,65,-12,0,0,0,0,0
1584021369562.5,16,62,-11,0,0,0,0,0
1584021369593.75,15,60,-11,0,0,0,0,0
1584021369625,16,63,-13,0,0,0,0,0
1584021369656.25,17,63,-13,0,0,0,0,0
1584021369687.5,15,61,-12,0,0,0,0,0
1584021369718.75,16,61,-11,0,0,0,0,0
1584021369750,17,59,-10,0,0,0,0,0
1584021369781.25,16,62,-11,0,0,0,0,0
1584021369812.5,16,62,-12,0,0,0,0,0
1584021369843.75,15,59,-10,0,0,0,0,0
1584021369875,15,62,-11,0,0,0,0,0
1584021369906.25,16,63,-11,0,0,0,0,0
1584021369937.5,16,62,-11,0,0,0,0,0
1584021369968.75,15,61,-12,0,0,0,0,0
1584021370000,16,62,-12,0,0,0,0,0
1584021370031.25,16,62,-11,0,0,0,0,0
1584021370062.5,15,61,-11,0,0,0,0,0
1584021370093.75,14,60,-11,0,0,0,0,0
1584021370125,15,60,-11,0,0,0,0,0
1584021370156.25,14,61,-11,0,0,0,0,0
1584021370187.5,14,62,-11,0,0,0,0,0
1584021370218.75,14,62,-11,0,0,0,0,0
1584021370250,12,63,-12,0,0,0,0,0
1584021370281.25,12,63,-12,0,0,0,0,0
1584021370312.5,12,63,-11,0,0,0,0,0
1584021370343.75,10,61,-11,0,0,0,0,0
1584021370375,10,61,-11,0,0,0,0,0
1584021370406.25,9,63,-13,0,0,0,0,0
1584021370437.5,10,63,-13,0,0,0,0,0
1584021370468.75,9,63,-13,0,0,0,0,0
1584021370500,10,65,-14,0,0,0,0,0
1584021370531.25,9,66,-15,0,0,0,0,0
1584021370562.5,7,73,-16,0,0,0,0,0
1584021370593.75,5,73,-17,0,0,0,0,0
1584021370625,5,74,-21,0,0,0,0,0
1584021370656.25,5,69,-19,0,0,0,0,0
1584021370687.5,3,68,-20,0,0,0,0,0
1584021370718.75,1,68,-12,0,0,0,0,0
1584021370750,0,64,-9,0,0,0,0,0
1584021370781.25,0,60,-6,0,0,0,0,0
1584021370812.5,-10,52,-6,0,0,0,0,0
1584021370843.75,-21,57,0,0,0,0,0,0
1584021370875,-20,58,9,0,0,0,0,0
1584021370906.25,-22,62,18,0,0,0,0,0
1584021370937.5,-24,64,19,0,0,0,0,0
1584021370968.75,-27,63,1,0,0,0,0,0
1584021371000,-14,71,18,0,0,0,0,0
1584021371031.25,-11,68,31,0,0,0,0,0
1584021371062.5,-20,57,-3,0,0,0,0,0
1584021371093.75,-36,54,12,0,0,0,0,0
1584021371125,0,50,18,0,0,0,0,0
1584021371156.25,-12,52,3,0,0,0,0,0
1584021371187.5,-2,52,0,0,0,0,0,0
1584021371218.75,-18,41,-17,0,0,0,0,0
1584021371250,-42,38,-52,0,0,0,0,0
1584021371281.25,-36,44,-45,0,0,0,0,0
1584021371312.5,-5,68,-1,0,0,0,0,0
1584021371343.75,5,75,17,0,0,0,0,0
1584021371375,-19,93,11,0,0,0,0,0
1584021371406.25,-22,65,7,0,0,0,0,0
1584021371437.5,-15,51,4,0,0,0,0,0
1584021371468.75,-19,50,-8,0,0,0,0,0
1584021371500,-17,57,1,0,0,0,0,0
1584021371531.25,-21,68,5,0,0,0,0,0
1584021371562.5,-20,71,7,0,0,0,0,0
1584021371593.75,-19,68,8,0,0,0,0,0
1584021371625,-16,61,-2,0,0,0,0,0
1584021371656.25,-15,62,-3,0,0,0,0,0
1584021371687.5,-14,64,-2,0,0,0,0,0
1584021371718.75,-8,67,3,0,0,0,0,0
1584021371750,-5,67,6,0,0,0,0,0
1584021371781.25,-10,64,3,0,0,0,0,0
1584021371812.5,-6,60,-6,0,0,0,0,0
1584021371843.75,-3,58,-17,0,0,0,0,0
1584021371875,-11,63,-11,0,0,0,0,0
1584021371906.25,-10,63,-2,0,0,0,0,0
1584021371937.5,-12,64,0,0,0,0,0,0
1584021371968.75,-12,65,4,0,0,0,0,0
1584021372000,-12,64,0,0,0,0,0,0
1584021372031.25,-11,63,-7,0,0,0,0,0
1584021372062.5,-12,64,1,0,0,0,0,0
1584021372093.75,-12,64,2,0,0,0,0,0
1584021372125,-11,64,-1,0,0,0,0,0
1584021372156.25,-12,64,-1,0,0,0,0,0
1584021372187.5,-13,63,0,0,0,0,0,0
1584021372218.75,-11,62,-3,0,0,0,0,0
1584021372250,-13,63,-4,0,0,0,0,0
1584021372281.25,-12,63,0,0,0,0,0,0
1584021372312.5,-11,63,4,0,0,0,0,0
1584021372343.75,-11,62,-2,0,0,0,0,0
1584021372375,-14,63,-3,0,0,0,0,0
1584021372406.25,-14,63,0,0,0,0,0,0
1584021372437.5,-16,62,-1,0,0,0,0,0
1584021372468.75,-21,62,-5,0,0,0,0,0
1584021372500,-32,60,-10,0,0,0,0,0
1584021372531.25,-9,58,10,0,0,0,0,0
1584021372562.5,-5,61,13,0,0,0,0,0
1584021372593.75,-5,65,14,0,0,0,0,0
1584021372625,-5,62,4,0,0,0,0,0
1584021372656.25,-3,63,-3,0,0,0,0,0
1584021372687.5,3,64,-7,0,0,0,0,0
1584021372718.75,6,62,-1,0,0,0,0,0
1584021372750,2,63,8,0,0,0,0,0
1584021372781.25,4,64,-9,0,0,0,0,0
1584021372812.5,2,67,-9,0,0,0,0,0
1584021372843.75,1,70,-2,0,0,0,0,0
1584021372875,3,69,-1,0,0,0,0,0
1584021372906.25,4,63,6,0,0,0,0,0
1584021372937.5,7,61,-1,0,0,0,0,0
1584021372968.75,4,63,-3,0,0,0,0,0
1584021373000,7,65,7,0,0,0,0,0
1584021373031.25,4,63,10,0,0,0,0,0
1584021373062.5,5,62,9,0,0,0,0,0
1584021373093.75,12,61,3,0,0,0,0,0
1584021373125,11,63,5,0,0,0,0,0
1584021373156.25,9,62,12,0,0,0,0,0
1584021373187.5,8,60,11,0,0,0,0,0
1584021373218.75,13,59,9,0,0,0,0,0
1584021373250,11,62,9,0,0,0,0,0
1584021373281.25,10,64,9,0,0,0,0,0
1584021373312.5,15,63,7,0,0,0,0,0
1584021373343.75,8,62,7,0,0,0,0,0
1584021373375,4,64,6,0,0,0,0,0
1584021373406.25,8,66,14,0,0,0,0,0
1584021373437.5,8,62,22,0,0,0,0,0
1584021373468.75,5,62,15,0,0,0,0,0
1584021373500,10,60,-5,0,0,0,0,0
1584021373531.25,5,62,3,0,0,0,0,0
1584021373562.5,-3,64,15,0,0,0,0,0
1584021373593.75,2,60,11,0,0,0,0,0
1584021373625,-4,62,7,0,0,0,0,0
1584021373656.25,-10,62,10,0,0,0,0,0
1584021373687.5,-6,60,15,0,0,0,0,0
1584021373718.75,-6,60,20,0,0,0,0,0
1584021373750,-8,62,15,0,0,0,0,0
1584021373781.25,-8,63,9,0,0,0,0,0
1584021373812.5,-8,65,16,0,0,0,0,0
1584021373843.75,-8,63,17,0,0,0,0,0
1584021373875,-7,60,13,0,0,0,0,0
1584021373906.25,-4,60,17,0,0,0,0,0
1584021373937.5,-3,57,21,0,0,0,0,0
1584021373968.75,4,56,18,0,0,0,0,0
1584021374000,7,61,25,0,0,0,0,0
1584021374031.25,7,62,23,0,0,0,0,0
1584021374062.5,9,60,10,0,0,0,0,0
1584021374093.75,10,61,12,0,0,0,0,0
1584021374125,12,62,19,0,0,0,0,0
1584021374156.25,7,59,15,0,0,0,0,0
1584021374187.5,9,58,18,0,0,0,0,0
1584021374218.75,14,60,23,0,0,0,0,0
1584021374250,15,60,17,0,0,0,0,0
1584021374281.25,18,57,21,0,0,0,0,0
1584021374312.5,16,56,25,0,0,0,0,0
1584021374343.75,14,57,22,0,0,0,0,0
1584021374375,18,59,22,0,0,0,0,0
1584021374406.25,10,60,22,0,0,0,0,0
1584021374437.5,10,59,14,0,0,0,0,0
1584021374468.75,15,58,18,0,0,0,0,0
1584021374500,10,60,24,0,0,0,0,0
1584021374531.25,11,59,21,0,0,0,0,0
1584021374562.5,11,58,16,0,0,0,0,0
1584021374593.75,12,59,20,0,0,0,0,0
1584021374625,12,59,20,0,0,0,0,0
1584021374656.25,12,61,21,0,0,0,0,0
1584021374687.5,14,61,21,0,0,0,0,0
1584021374718.75,12,61,20,0,0,0,0,0
1584021374750,9,60,20,0,0,0,0,0
1584021374781.25,7,59,19,0,0,0,0,0
1584021374812.5,8,60,18,0,0,0,0,0
1584021374843.75,10,61,19,0,0,0,0,0
1584021374875,16,58,24,0,0,0,0,0
1584021374906.25,17,56,21,0,0,0,0,0
1584021374937.5,-1,60,11,0,0,0,0,0
1584021374968.75,0,60,16,0,0,0,0,0
1584021375000,0,61,17,0,0,0,0,0
1584021375031.25,7,60,11,0,0,0,0,0
1584021375062.5,4,61,11,0,0,0,0,0
1584021375093.75,3,60,19,0,0,0,0,0
1584021375125,9,57,20,0,0,0,0,0
1584021375156.25,13,58,19,0,0,0,0,0
1584021375187.5,17,58,19,0,0,0,0,0
1584021375218.75,15,58,21,0,0,0,0,0
1584021375250,18,59,21,0,0,0,0,0
1584021375281.25,20,59,11,0,0,0,0,0
1584021375312.5,19,59,8,0,0,0,0,0
1584021375343.75,25,59,7,0,0,0,0,0
1584021375375,27,60,5,0,0,0,0,0
1584021375406.25,24,59,5,0,0,0,0,0
1584021375437.5,26,56,6,0,0,0,0,0
1584021375468.75,17,58,9,0,0,0,0,0
1584021375500,9,67,34,0,0,0,0,0
1584021375531.25,6,88,85,0,0,0,0,0
1584021375562.5,13,75,108,0,0,0,0,0
1584021375593.75,36,17,-80,0,0,0,0,0
1584021375625,19,50,-94,0,0,0,0,0
1584021375656.25,-11,91,-39,0,0,0,0,0
1584021375687.5,40,71,-27,0,0,0,0,0
1584021375718.75,88,59,-9,0,0,0,0,0
1584021375750,91,57,12,0,0,0,0,0
1584021375781.25,-14,54,-18,0,0,0,0,0
1584021375812.5,-25,57,-26,0,0,0,0,0
1584021375843.75,6,59,-63,0,0,0,0,0
1584021375875,-25,61,-88,0,0,0,0,0
1584021375906.25,19,86,-1,0,0,0,0,0
1584021375937.5,-12,34,-44,0,0,0,0,0
1584021375968.75,24,28,-23,0,0,0,0,0
1584021376000,-3,19,-34,0,0,0,0,0
1584021376031.25,59,29,-40,0,0,0,0,0
1584021376062.5,87,127,-89,0,0,0,0,0
1584021376093.75,-29,54,-31,0,0,0,0,0
1584021376125,-36,29,-4,0,0,0,0,0
1584021376156.25,1,40,-45,0,0,0,0,0
1584021376187.5,-11,60,-46,0,0,0,0,0
1584021376218.75,-14,61,-33,0,0,0,0,0
1584021376250,-2,40,-46,0,0,0,0,0
1584021376281.25,-10,41,-47,0,0,0,0,0
1584021376312.5,-20,46,-40,0,0,0,0,0
1584021376343.75,-9,49,-45,0,0,0,0,0
1584021376375,-11,55,-44,0,0,0,0,0
1584021376406.25,-13,54,-36,0,0,0,0,0
1584021376437.5,-8,45,-42,0,0,0,0,0
1584021376468.75,-9,45,-46,0,0,0,0,0
1584021376500,-9,49,-44,0,0,0,0,0
1584021376531.25,-9,47,-40,0,0,0,0,0
1584021376562.5,-7,51,-40,0,0,0,0,0
1584021376593.75,-9,49,-42,0,0,0,0,0
1584021376625,-11,45,-40,0,0,0,0,0
1584021376656.25,-10,50,-37,0,0,0,0,0
1584021376687.5,-6,54,-38,0,0,0,0,0
1584021376718.75,-5,55,-38,0,0,0,0,0
1584021376750,-12,46,-39,0,0,0,0,0
1584021376781.25,-10,50,-39,0,0,0,0,0
1584021376812.5,-6,49,-42,0,0,0,0,0
1584021376843.75,-11,49,-40,0,0,0,0,0
1584021376875,-5,47,-39,0,0,0,0,0
1584021376906.25,-18,53,-38,0,0,0,0,0
1584021376937.5,-11,52,-42,0,0,0,0,0
1584021376968.75,-5,50,-48,0,0,0,0,0
1584021377000,-9,50,-40,0,0,0,0,0
1584021377031.25,-7,49,-41,0,0,0,0,0
1584021377062.5,-15,43,-47,0,0,0,0,0
1584021377093.75,-12,48,-46,0,0,0,0,0
1584021377125,-12,51,-39,0,0,0,0,0
1584021377156.25,-6,52,-34,0,0,0,0,0
1584021377187.5,-6,53,-39,0,0,0,0,0
1584021377218.75,-11,53,-39,0,0,0,0,0
1584021377250,-11,51,-38,0,0,0,0,0
1584021377281.25,-10,51,-41,0,0,0,0,0
1584021377312.5,-6,57,-37,0,0,0,0,0
1584021377343.75,-6,64,-33,0,0,0,0,0
1584021377375,-12,70,-21,0,0,0,0,0
1584021377406.25,0,63,-21,0,0,0,0,0
1584021377437.5,1,64,-15,0,0,0,0,0
1584021377468.75,-10,96,74,0,0,0,0,0
1584021377500,-2,72,78,0,0,0,0,0
1584021377531.25,-86,114,-92,0,0,0,0,0
1584021377562.5,9,74,-54,0,0,0,0,0
1584021377593.75,25,76,-39,0,0,0,0,0
1584021377625,34,57,-12,0,0,0,0,0
1584021377656.25,38,48,-7,0,0,0,0,0
1584021377687.5,40,28,-7,0,0,0,0,0
1584021377718.75,-52,30,-37,0,0,0,0,0
1584021377750,-128,40,-60,0,0,0,0,0
1584021377781.25,-33,61,-4,0,0,0,0,0
1584021377812.5,-18,70,7,0,0,0,0,0
1584021377843.75,-39,66,-5,0,0,0,0,0
1584021377875,-41,49,2,0,0,0,0,0
1584021377906.25,-36,48,5,0,0,0,0,0
1584021377937.5,-37,53,-2,0,0,0,0,0
1584021377968.75,-34,54,-3,0,0,0,0,0
1584021378000,-34,54,-2,0,0,0,0,0
1584021378031.25,-39,56,-6,0,0,0,0,0
1584021378062.5,-37,56,-5,0,0,0,0,0
1584021378093.75,-35,57,-4,0,0,0,0,0
1584021378125,-37,55,-7,0,0,0,0,0
1584021378156.25,-37,56,-5,0,0,0,0,0
1584021378187.5,-37,55,-5,0,0,0,0,0
1584021378218.75,-36,55,-4,0,0,0,0,0
1584021378250,-38,56,-5,0,0,0,0,0
1584021378281.25,-39,56,-5,0,0,0,0,0
1584021378312.5,-36,53,-3,0,0,0,0,0
1584021378343.75,-41,58,-7,0,0,0,0,0
1584021378375,-45,64,-6,0,0,0,0,0
1584021378406.25,-35,59,-2,0,0,0,0,0
1584021378437.5,-27,47,7,0,0,0,0,0
1584021378468.75,-38,45,2,0,0,0,0,0
1584021378500,-56,48,-3,0,0,0,0,0
1584021378531.25,-68,56,-8,0,0,0,0,0
1584021378562.5,-68,55,-14,0,0,0,0,0
1584021378593.75,-67,50,-13,0,0,0,0,0
1584021378625,-62,35,-16,0,0,0,0,0
1584021378656.25,-15,20,-13,0,0,0,0,0
1584021378687.5,21,23,66,0,0,0,0,0
1584021378718.75,14,24,86,0,0,0,0,0
1584021378750,-7,26,74,0,0,0,0,0
1584021378781.25,-11,24,68,0,0,0,0,0
1584021378812.5,-9,19,60,0,0,0,0,0
1584021378843.75,-4,7,61,0,0,0,0,0
1584021378875,-6,4,58,0,0,0,0,0
1584021378906.25,-28,-4,57,0,0,0,0,0
1584021378937.5,-73,-3,53,0,0,0,0,0
1584021378968.75,-61,-5,32,0,0,0,0,0
1584021379000,-28,-18,36,0,0,0,0,0
1584021379031.25,-21,-18,39,0,0,0,0,0
1584021379062.5,-38,9,78,0,0,0,0,0
1584021379093.75,-24,10,64,0,0,0,0,0
1584021379125,-28,9,54,0,0,0,0,0
1584021379156.25,-40,2,52,0,0,0,0,0
1584021379187.5,-36,-1,52,0,0,0,0,0
1584021379218.75,-40,-3,58,0,0,0,0,0
1584021379250,-37,0,56,0,0,0,0,0
1584021379281.25,-36,2,55,0,0,0,0,0
1584021379312.5,-37,2,60,0,0,0,0,0
1584021379343.75,-38,-1,59,0,0,0,0,0
1584021379375,-33,0,64,0,0,0,0,0
1584021379406.25,-33,-4,60,0,0,0,0,0
1584021379437.5,-41,-7,47,0,0,0,0,0
1584021379468.75,-66,-19,20,0,0,0,0,0
1584021379500,-59,-33,13,0,0,0,0,0
1584021379531.25,-54,-39,12,0,0,0,0,0
1584021379562.5,-22,-48,10,0,0,0,0,0
1584021379593.75,-8,-47,24,0,0,0,0,0
1584021379625,-14,-37,49,0,0,0,0,0
1584021379656.25,-20,-21,65,0,0,0,0,0
1584021379687.5,-20,-19,63,0,0,0,0,0
1584021379718.75,-40,-14,58,0,0,0,0,0
1584021379750,-63,-12,53,0,0,0,0,0
1584021379781.25,-21,-13,66,0,0,0,0,0
1584021379812.5,-29,-7,63,0,0,0,0,0
1584021379843.75,-61,-5,35,0,0,0,0,0
1584021379875,-82,11,14,0,0,0,0,0
1584021379906.25,-61,10,32,0,0,0,0,0
1584021379937.5,-51,14,39,0,0,0,0,0
1584021379968.75,-35,24,48,0,0,0,0,0
1584021380000,-34,34,47,0,0,0,0,0
1584021380031.25,-34,35,43,0,0,0,0,0
1584021380062.5,-44,29,46,0,0,0,0,0
1584021380093.75,-38,22,53,0,0,0,0,0
1584021380125,-26,16,54,0,0,0,0,0
1584021380156.25,-15,15,53,0,0,0,0,0
1584021380187.5,-21,27,60,0,0,0,0,0
1584021380218.75,-30,36,51,0,0,0,0,0
1584021380250,-31,39,44,0,0,0,0,0
1584021380281.25,-25,40,47,0,0,0,0,0
1584021380312.5,-24,30,53,0,0,0,0,0
1584021380343.75,-25,30,54,0,0,0,0,0
1584021380375,-26,22,58,0,0,0,0,0
1584021380406.25,-25,21,56,0,0,0,0,0
1584021380437.5,-36,28,47,0,0,0,0,0
1584021380468.75,-42,29,38,0,0,0,0,0
1584021380500,-44,31,33,0,0,0,0,0
1584021380531.25,-37,26,35,0,0,0,0,0
1584021380562.5,-31,24,36,0,0,0,0,0
1584021380593.75,-20,24,35,0,0,0,0,0
1584021380625,-11,17,37,0,0,0,0,0
1584021380656.25,-12,17,42,0,0,0,0,0
1584021380687.5,-38,26,55,0,0,0,0,0
1584021380718.75,-98,10,79,0,0,0,0,0
1584021380750,-57,14,54,0,0,0,0,0
1584021380781.25,-45,2,60,0,0,0,0,0
1584021380812.5,-35,-15,70,0,0,0,0,0
1584021380843.75,-12,-26,62,0,0,0,0,0
1584021380875,-48,-7,47,0,0,0,0,0
1584021380906.25,-59,-12,42,0,0,0,0,0
1584021380937.5,-14,-16,34,0,0,0,0,0
1584021380968.75,-11,-17,23,0,0,0,0,0
1584021381000,-36,-29,19,0,0,0,0,0
1584021381031.25,-89,-20,36,0,0,0,0,0
1584021381062.5,-91,-9,37,0,0,0,0,0
1584021381093.75,-54,-8,35,0,0,0,0,0
1584021381125,-54,-20,33,0,0,0,0,0
1584021381156.25,-52,-24,28,0,0,0,0,0
1584021381187.5,-65,-23,26,0,0,0,0,0
1584021381218.75,-68,-19,25,0,0,0,0,0
1584021381250,-62,-16,28,0,0,0,0,0
1584021381281.25,-56,-21,29,0,0,0,0,0
1584021381312.5,-48,-23,34,0,0,0,0,0
1584021381343.75,-42,-20,40,0,0,0,0,0
1584021381375,-38,-22,44,0,0,0,0,0
1584021381406.25,-21,-26,58,0,0,0,0,0
1584021381437.5,-68,-16,27,0,0,0,0,0
1584021381468.75,-74,-20,14,0,0,0,0,0
1584021381500,-57,-26,12,0,0,0,0,0
1584021381531.25,-56,-28,11,0,0,0,0,0
1584021381562.5,-65,-25,2,0,0,0,0,0
1584021381593.75,-49,-22,25,0,0,0,0,0
1584021381625,-51,-18,35,0,0,0,0,0
1584021381656.25,-55,-12,34,0,0,0,0,0
1584021381687.5,-60,-13,34,0,0,0,0,0
1584021381718.75,-61,-11,38,0,0,0,0,0
1584021381750,-51,-5,29,0,0,0,0,0
1584021381781.25,-46,-1,31,0,0,0,0,0
1584021381812.5,-35,3,50,0,0,0,0,0
1584021381843.75,-33,9,58,0,0,0,0,0
1584021381875,-48,12,46,0,0,0,0,0
1584021381906.25,-40,30,50,0,0,0,0,0
1584021381937.5,-37,36,37,0,0,0,0,0
1584021381968.75,-38,44,32,0,0,0,0,0
1584021382000,-28,41,25,0,0,0,0,0
1584021382031.25,-29,40,21,0,0,0,0,0
1584021382062.5,-30,46,24,0,0,0,0,0
1584021382093.75,-32,50,12,0,0,0,0,0
1584021382125,-20,64,8,0,0,0,0,0
1584021382156.25,-17,68,-1,0,0,0,0,0
1584021382187.5,-21,69,-3,0,0,0,0,0
1584021382218.75,-8,74,2,0,0,0,0,0
1584021382250,-16,67,-3,0,0,0,0,0
1584021382281.25,-11,65,-2,0,0,0,0,0
1584021382312.5,-5,64,-3,0,0,0,0,0
1584021382343.75,-9,66,-3,0,0,0,0,0
1584021382375,-2,69,3,0,0,0,0,0
1584021382406.25,-5,72,-2,0,0,0,0,0
1584021382437.5,0,71,-5,0,0,0,0,0
1584021382468.75,1,65,-9,0,0,0,0,0
1584021382500,5,63,-10,0,0,0,0,0
1584021382531.25,3,65,-18,0,0,0,0,0
1584021382562.5,0,63,-24,0,0,0,0,0
1584021382593.75,9,68,-12,0,0,0,0,0
1584021382625,6,83,8,0,0,0,0,0
1584021382656.25,27,82,18,0,0,0,0,0
1584021382687.5,14,78,22,0,0,0,0,0
1584021382718.75,-12,69,14,0,0,0,0,0
1584021382750,-14,56,-2,0,0,0,0,0
1584021382781.25,-9,58,-24,0,0,0,0,0
1584021382812.5,-4,71,-14,0,0,0,0,0
1584021382843.75,7,78,-15,0,0,0,0,0
1584021382875,16,100,-41,0,0,0,0,0
1584021382906.25,15,103,-52,0,0,0,0,0
1584021382937.5,5,74,-66,0,0,0,0,0
1584021382968.75,-20,67,-40,0,0,0,0,0
1584021383000,-18,74,-26,0,0,0,0,0
1584021383031.25,6,76,2,0,0,0,0,0
1584021383062.5,34,66,11,0,0,0,0,0
1584021383093.75,40,67,8,0,0,0,0,0
1584021383125,52,67,8,0,0,0,0,0
1584021383156.25,53,67,6,0,0,0,0,0
1584021383187.5,51,63,4,0,0,0,0,0
1584021383218.75,19,63,5,0,0,0,0,0
1584021383250,3,61,-7,0,0,0,0,0
1584021383281.25,-19,54,-19,0,0,0,0,0
1584021383312.5,-15,54,-16,0,0,0,0,0
1584021383343.75,7,49,-11,0,0,0,0,0
1584021383375,17,63,-10,0,0,0,0,0
1584021383406.25,11,68,-9,0,0,0,0,0
1584021383437.5,-7,55,-31,0,0,0,0,0
1584021383468.75,-9,49,-20,0,0,0,0,0
1584021383500,-8,48,-23,0,0,0,0,0
1584021383531.25,-26,53,-31,0,0,0,0,0
1584021383562.5,-25,56,-8,0,0,0,0,0
1584021383593.75,-63,76,8,0,0,0,0,0
1584021383625,-26,75,-2,0,0,0,0,0
1584021383656.25,-22,76,-10,0,0,0,0,0
1584021383687.5,-19,71,-11,0,0,0,0,0
1584021383718.75,-33,63,-31,0,0,0,0,0
1584021383750,2,45,-14,0,0,0,0,0
1584021383781.25,-7,66,-49,0,0,0,0,0
1584021383812.5,9,81,-73,0,0,0,0,0
1584021383843.75,62,91,-54,0,0,0,0,0
1584021383875,46,90,-10,0,0,0,0,0
1584021383906.25,8,75,-15,0,0,0,0,0
1584021383937.5,-27,45,-28,0,0,0,0,0
1584021383968.75,-17,40,-36,0,0,0,0,0
1584021384000,13,43,-48,0,0,0,0,0
1584021384031.25,14,44,-44,0,0,0,0,0
1584021384062.5,15,51,-33,0,0,0,0,0
1584021384093.75,0,57,-23,0,0,0,0,0
1584021384125,-6,61,-25,0,0,0,0,0
1584021384156.25,-4,70,-21,0,0,0,0,0
1584021384187.5,-23,65,-14,0,0,0,0,0
1584021384218.75,-44,57,-24,0,0,0,0,0
1584021384250,-8,45,-12,0,0,0,0,0
1584021384281.25,13,49,24,0,0,0,0,0
1584021384312.5,18,71,39,0,0,0,0,0
1584021384343.75,-8,77,3,0,0,0,0,0
1584021384375,-20,73,-22,0,0,0,0,0
1584021384406.25,-28,61,-33,0,0,0,0,0
1584021384437.5,-36,74,-39,0,0,0,0,0
1584021384468.75,-41,92,-37,0,0,0,0,0
1584021384500,-35,89,-26,0,0,0,0,0
1584021384531.25,-35,70,-12,0,0,0,0,0
1584021384562.5,-28,59,-2,0,0,0,0,0
1584021384593.75,-19,57,-9,0,0,0,0,0
1584021384625,-18,60,-12,0,0,0,0,0
1584021384656.25,-18,64,-7,0,0,0,0,0
1584021384687.5,-16,67,-4,0,0,0,0,0
1584021384718.75,-15,62,3,0,0,0,0,0
1584021384750,-19,55,8,0,0,0,0,0
1584021384781.25,-22,53,4,0,0,0,0,0
1584021384812.5,-25,50,1,0,0,0,0,0
1584021384843.75,-24,48,2,0,0,0,0,0
1584021384875,-25,44,1,0,0,0,0,0
1584021384906.25,-25,48,5,0,0,0,0,0
1584021384937.5,-24,50,6,0,0,0,0,0
1584021384968.75,-23,52,13,0,0,0,0,0
1584021385000,-24,49,14,0,0,0,0,0
1584021385031.25,-29,49,15,0,0,0,0,0
1584021385062.5,-38,49,15,0,0,0,0,0
1584021385093.75,-40,48,13,0,0,0,0,0
1584021385125,-41,53,15,0,0,0,0,0
1584021385156.25,-41,66,14,0,0,0,0,0
1584021385187.5,-44,86,12,0,0,0,0,0
1584021385218.75,-40,90,6,0,0,0,0,0
1584021385250,-38,57,10,0,0,0,0,0
1584021385281.25,-39,52,16,0,0,0,0,0
1584021385312.5,-33,40,5,0,0,0,0,0
1584021385343.75,-31,35,5,0,0,0,0,0
1584021385375,-18,33,-5,0,0,0,0,0
1584021385406.25,-33,46,-36,0,0,0,0,0
1584021385437.5,-50,52,-40,0,0,0,0,0
1584021385468.75,-42,66,-32,0,0,0,0,0
1584021385500,-36,66,-26,0,0,0,0,0
1584021385531.25,-32,56,-14,0,0,0,0,0
1584021385562.5,-37,53,-10,0,0,0,0,0
1584021385593.75,-43,51,-12,0,0,0,0,0
1584021385625,-39,45,-21,0,0,0,0,0
1584021385656.25,-38,45,-15,0,0,0,0,0
1584021385687.5,-38,50,-5,0,0,0,0,0
1584021385718.75,-45,55,-6,0,0,0,0,0
1584021385750,-49,58,-7,0,0,0,0,0
1584021385781.25,-50,61,-2,0,0,0,0,0
1584021385812.5,-45,57,6,0,0,0,0,0
1584021385843.75,-43,53,10,0,0,0,0,0
1584021385875,-41,44,12,0,0,0,0,0
1584021385906.25,-40,42,9,0,0,0,0,0
1584021385937.5,-42,53,0,0,0,0,0,0
1584021385968.75,-49,63,-7,0,0,0,0,0
1584021386000,-50,62,-8,0,0,0,0,0
1584021386031.25,-38,52,-2,0,0,0,0,0
1584021386062.5,-31,52,2,0,0,0,0,0
1584021386093.75,-25,57,8,0,0,0,0,0
1584021386125,-25,57,4,0,0,0,0,0
1584021386156.25,-25,54,1,0,0,0,0,0
1584021386187.5,-25,45,-1,0,0,0,0,0
1584021386218.75,-28,40,-2,0,0,0,0,0
1584021386250,-30,38,-2,0,0,0,0,0
1584021386281.25,-33,44,4,0,0,0,0,0
1584021386312.5,-33,47,8,0,0,0,0,0
1584021386343.75,-32,53,15,0,0,0,0,0
1584021386375,-31,55,18,0,0,0,0,0
1584021386406.25,-32,56,17,0,0,0,0,0
1584021386437.5,-37,58,16,0,0,0,0,0
1584021386468.75,-39,60,16,0,0,0,0,0
1584021386500,-39,61,14,0,0,0,0,0
1584021386531.25,-40,69,14,0,0,0,0,0
1584021386562.5,-43,77,14,0,0,0,0,0
1584021386593.75,-46,77,10,0,0,0,0,0
1584021386625,-40,56,8,0,0,0,0,0
1584021386656.25,-37,49,8,0,0,0,0,0
1584021386687.5,-34,38,2,0,0,0,0,0
1584021386718.75,-34,38,-2,0,0,0,0,0
1584021386750,-36,47,-8,0,0,0,0,0
1584021386781.25,-40,59,-13,0,0,0,0,0
1584021386812.5,-41,63,-13,0,0,0,0,0
1584021386843.75,-39,68,-11,0,0,0,0,0
1584021386875,-35,68,-12,0,0,0,0,0
1584021386906.25,-30,64,-10,0,0,0,0,0
1584021386937.5,-35,56,-12,0,0,0,0,0
1584021386968.75,-41,55,-16,0,0,0,0,0
1584021387000,-44,55,-13,0,0,0,0,0
1584021387031.25,-35,56,-9,0,0,0,0,0
1584021387062.5,-32,57,-6,0,0,0,0,0
1584021387093.75,-31,60,3,0,0,0,0,0
1584021387125,-30,59,4,0,0,0,0,0
1584021387156.25,-30,54,7,0,0,0,0,0
1584021387187.5,-31,57,13,0,0,0,0,0
1584021387218.75,-33,57,14,0,0,0,0,0
1584021387250,-37,47,21,0,0,0,0,0
1584021387281.25,-33,46,21,0,0,0,0,0
1584021387312.5,-27,48,18,0,0,0,0,0
1584021387343.75,-23,52,24,0,0,0,0,0
1584021387375,-20,53,24,0,0,0,0,0
1584021387406.25,-11,52,16,0,0,0,0,0
1584021387437.5,-12,55,18,0,0,0,0,0
1584021387468.75,-21,56,25,0,0,0,0,0
1584021387500,-40,58,17,0,0,0,0,0
1584021387531.25,-50,60,10,0,0,0,0,0
1584021387562.5,-56,61,0,0,0,0,0,0
1584021387593.75,-41,64,3,0,0,0,0,0
1584021387625,-34,68,5,0,0,0,0,0
1584021387656.25,-21,77,10,0,0,0,0,0
1584021387687.5,-19,78,10,0,0,0,0,0
1584021387718.75,-18,69,2,0,0,0,0,0
1584021387750,-18,67,-5,0,0,0,0,0
1584021387781.25,-19,68,-7,0,0,0,0,0
1584021387812.5,-19,65,-9,0,0,0,0,0
1584021387843.75,-19,63,-9,0,0,0,0,0
1584021387875,-18,53,-8,0,0,0,0,0
1584021387906.25,-20,45,-8,0,0,0,0,0
1584021387937.5,-21,42,-8,0,0,0,0,0
1584021387968.75,-23,39,-6,0,0,0,0,0
1584021388000,-24,43,-4,0,0,0,0,0
1584021388031.25,-26,49,-3,0,0,0,0,0
1584021388062.5,-31,58,-1,0,0,0,0,0
1584021388093.75,-34,61,1,0,0,0,0,0
1584021388125,-35,66,6,0,0,0,0,0
1584021388156.25,-30,67,8,0,0,0,0,0
1584021388187.5,-27,66,9,0,0,0,0,0
1584021388218.75,-26,66,11,0,0,0,0,0
1584021388250,-28,65,11,0,0,0,0,0
1584021388281.25,-31,61,9,0,0,0,0,0
1584021388312.5,-33,57,7,0,0,0,0,0
1584021388343.75,-33,56,6,0,0,0,0,0
1584021388375,-31,56,6,0,0,0,0,0
1584021388406.25,-29,57,6,0,0,0,0,0
1584021388437.5,-28,58,5,0,0,0,0,0
1584021388468.75,-28,60,5,0,0,0,0,0
1584021388500,-28,60,5,0,0,0,0,0
1584021388531.25,-27,59,5,0,0,0,0,0
1584021388562.5,-25,58,5,0,0,0,0,0
1584021388593.75,-25,57,5,0,0,0,0,0
1584021388625,-25,56,6,0,0,0,0,0
1584021388656.25,-26,56,6,0,0,0,0,0
1584021388687.5,-26,56,6,0,0,0,0,0
1584021388718.75,-27,57,6,0,0,0,0,0
1584021388750,-27,58,6,0,0,0,0,0
1584021388781.25,-28,59,5,0,0,0,0,0
1584021388812.5,-29,59,5,0,0,0,0,0
1584021388843.75,-29,59,5,0,0,0,0,0
1584021388875,-30,59,4,0,0,0,0,0
1584021388906.25,-30,58,4,0,0,0,0,0
1584021388937.5,-30,58,3,0,0,0,0,0
1584021388968.75,-30,58,3,0,0,0,0,0
1584021389000,-29,58,3,0,0,0,0,0
1584021389031.25,-29,58,3,0,0,0,0,0
1584021389062.5,-29,58,3,0,0,0,0,0
1584021389093.75,-28,58,3,0,0,0,0,0
1584021389125,-28,58,3,0,0,0,0,0
1584021389156.25,-28,58,4,0,0,0,0,0
1584021389187.5,-27,58,4,0,0,0,0,0
1584021389218.75,-27,58,4,0,0,0,0,0
1584021389250,-27,58,4,0,0,0,0,0
1584021389281.25,-27,58,4,0,0,0,0,0
1584021389312.5,-27,58,4,0,0,0,0,0
1584021389343.75,-27,58,4,0,0,0,0,0
1584021389375,-28,58,4,0,0,0,0,0
1584021389406.25,-28,58,3,0,0,0,0,0
1584021389437.5,-28,57,3,0,0,0,0,0
1584021389468.75,-29,57,3,0,0,0,0,0
1584021389500,-29,57,3,0,0,0,0,0
1584021389531.25,-29,57,3,0,0,0,0,0
1584021389562.5,-29,59,3,0,0,0,0,0
1584021389593.75,-29,59,4,0,0,0,0,0
1584021389625,-28,58,4,0,0,0,0,0
1584021389656.25,-31,54,4,0,0,0,0,0
1584021389687.5,-35,52,4,0,0,0,0,0
1584021389718.75,-36,50,2,0,0,0,0,0
1584021389750,-40,51,-1,0,0,0,0,0
1584021389781.25,-42,54,0,0,0,0,0,0
1584021389812.5,-42,56,2,0,0,0,0,0
1584021389843.75,-40,64,9,0,0,0,0,0
1584021389875,-40,71,12,0,0,0,0,0
1584021389906.25,-28,81,14,0,0,0,0,0
1584021389937.5,-15,72,15,0,0,0,0,0
1584021389968.75,-12,67,17,0,0,0,0,0
1584021390000,-1,58,14,0,0,0,0,0
1584021390031.25,7,51,9,0,0,0,0,0
1584021390062.5,-5,49,1,0,0,0,0,0
1584021390093.75,-17,53,-3,0,0,0,0,0
1584021390125,-21,58,-8,0,0,0,0,0
1584021390156.25,-23,63,-6,0,0,0,0,0
1584021390187.5,-20,64,5,0,0,0,0,0
1584021390218.75,-19,64,9,0,0,0,0,0
1584021390250,-20,63,8,0,0,0,0,0
1584021390281.25,-22,62,8,0,0,0,0,0
1584021390312.5,-25,65,8,0,0,0,0,0
1584021390343.75,-30,65,4,0,0,0,0,0
1584021390375,-34,66,3,0,0,0,0,0
1584021390406.25,-41,66,1,0,0,0,0,0
1584021390437.5,-45,72,1,0,0,0,0,0
1584021390468.75,-54,82,-1,0,0,0,0,0
1584021390500,-56,70,-4,0,0,0,0,0
1584021390531.25,-51,54,-4,0,0,0,0,0
1584021390562.5,-41,43,-3,0,0,0,0,0
1584021390593.75,-38,45,-4,0,0,0,0,0
1584021390625,-39,60,-5,0,0,0,0,0
1584021390656.25,-35,66,-9,0,0,0,0,0
1584021390687.5,-31,67,-10,0,0,0,0,0
1584021390718.75,-26,73,-11,0,0,0,0,0
1584021390750,-21,83,-18,0,0,0,0,0
1584021390781.25,-19,89,-20,0,0,0,0,0
1584021390812.5,-18,94,-17,0,0,0,0,0
1584021390843.75,-17,92,-15,0,0,0,0,0
1584021390875,-14,84,-15,0,0,0,0,0
1584021390906.25,-14,86,-13,0,0,0,0,0
1584021390937.5,-11,88,-16,0,0,0,0,0
1584021390968.75,-19,70,-14,0,0,0,0,0
1584021391000,-36,47,6,0,0,0,0,0
1584021391031.25,-40,43,16,0,0,0,0,0
1584021391062.5,-30,40,17,0,0,0,0,0
1584021391093.75,-21,41,12,0,0,0,0,0
1584021391125,-8,41,8,0,0,0,0,0
1584021391156.25,-4,40,13,0,0,0,0,0
1584021391187.5,-6,43,18,0,0,0,0,0
1584021391218.75,-23,54,23,0,0,0,0,0
1584021391250,-30,57,22,0,0,0,0,0
1584021391281.25,-38,61,23,0,0,0,0,0
1584021391312.5,-41,65,22,0,0,0,0,0
1584021391343.75,-43,64,15,0,0,0,0,0
1584021391375,-44,63,5,0,0,0,0,0
1584021391406.25,-45,63,4,0,0,0,0,0
1584021391437.5,-44,62,10,0,0,0,0,0
1584021391468.75,-41,70,12,0,0,0,0,0
1584021391500,-42,78,12,0,0,0,0,0
1584021391531.25,-41,72,5,0,0,0,0,0
1584021391562.5,-38,63,-1,0,0,0,0,0
1584021391593.75,-34,60,2,0,0,0,0,0
1584021391625,-40,66,0,0,0,0,0,0
1584021391656.25,-48,69,-5,0,0,0,0,0
1584021391687.5,-55,71,-8,0,0,0,0,0
1584021391718.75,-59,76,-2,0,0,0,0,0
1584021391750,-63,78,2,0,0,0,0,0
1584021391781.25,-100,90,5,0,0,0,0,0
1584021391812.5,-116,98,6,0,0,0,0,0
1584021391843.75,-77,83,42,0,0,0,0,0
1584021391875,-58,53,37,0,0,0,0,0
1584021391906.25,-47,41,33,0,0,0,0,0
1584021391937.5,-33,25,27,0,0,0,0,0
1584021391968.75,-20,7,20,0,0,0,0,0
1584021392000,-20,1,18,0,0,0,0,0
1584021392031.25,-13,-7,16,0,0,0,0,0
1584021392062.5,-10,-11,9,0,0,0,0,0
1584021392093.75,9,-18,15,0,0,0,0,0
1584021392125,16,-27,18,0,0,0,0,0
1584021392156.25,20,-31,17,0,0,0,0,0
1584021392187.5,27,-44,0,0,0,0,0,0
1584021392218.75,33,-46,8,0,0,0,0,0
1584021392250,12,-54,15,0,0,0,0,0
1584021392281.25,10,-58,21,0,0,0,0,0
1584021392312.5,-16,-60,14,0,0,0,0,0
1584021392343.75,8,-68,18,0,0,0,0,0
1584021392375,17,-66,21,0,0,0,0,0
1584021392406.25,10,-60,27,0,0,0,0,0
1584021392437.5,-9,-61,10,0,0,0,0,0
1584021392468.75,-2,-60,12,0,0,0,0,0
1584021392500,17,-58,22,0,0,0,0,0
1584021392531.25,3,-59,14,0,0,0,0,0
1584021392562.5,-5,-60,15,0,0,0,0,0
1584021392593.75,-5,-61,26,0,0,0,0,0
1584021392625,-7,-61,23,0,0,0,0,0
1584021392656.25,-5,-60,24,0,0,0,0,0
1584021392687.5,-4,-60,20,0,0,0,0,0
1584021392718.75,-12,-60,17,0,0,0,0,0
1584021392750,-11,-60,20,0,0,0,0,0
1584021392781.25,-12,-60,17,0,0,0,0,0
1584021392812.5,-18,-57,16,0,0,0,0,0
1584021392843.75,-18,-58,16,0,0,0,0,0
1584021392875,-7,-58,27,0,0,0,0,0
1584021392906.25,-3,-59,28,0,0,0,0,0
1584021392937.5,-16,-61,18,0,0,0,0,0
1584021392968.75,3,-61,26,0,0,0,0,0
1584021393000,-20,-59,14,0,0,0,0,0
1584021393031.25,-28,-61,9,0,0,0,0,0
1584021393062.5,-11,-58,25,0,0,0,0,0
1584021393093.75,-19,-58,19,0,0,0,0,0
1584021393125,-18,-59,17,0,0,0,0,0
1584021393156.25,-18,-58,17,0,0,0,0,0
1584021393187.5,-18,-58,18,0,0,0,0,0
1584021393218.75,-27,-57,15,0,0,0,0,0
1584021393250,-18,-58,18,0,0,0,0,0
1584021393281.25,-19,-58,17,0,0,0,0,0
1584021393312.5,-17,-58,18,0,0,0,0,0
1584021393343.75,-15,-57,19,0,0,0,0,0
1584021393375,-23,-58,16,0,0,0,0,0
1584021393406.25,-17,-57,24,0,0,0,0,0
1584021393437.5,-29,-57,19,0,0,0,0,0
1584021393468.75,-22,-61,15,0,0,0,0,0
1584021393500,-14,-59,20,0,0,0,0,0
1584021393531.25,-23,-58,18,0,0,0,0,0
1584021393562.5,-21,-59,17,0,0,0,0,0
1584021393593.75,-16,-58,22,0,0,0,0,0
1584021393625,-20,-57,20,0,0,0,0,0
1584021393656.25,-19,-57,19,0,0,0,0,0
1584021393687.5,-6,-58,24,0,0,0,0,0
1584021393718.75,-16,-58,19,0,0,0,0,0
1584021393750,-18,-58,17,0,0,0,0,0
1584021393781.25,-9,-58,24,0,0,0,0,0
1584021393812.5,-13,-58,23,0,0,0,0,0
1584021393843.75,-16,-59,20,0,0,0,0,0
1584021393875,-12,-59,21,0,0,0,0,0
1584021393906.25,-11,-58,22,0,0,0,0,0
1584021393937.5,-14,-59,19,0,0,0,0,0
1584021393968.75,-12,-58,22,0,0,0,0,0
1584021394000,-17,-58,18,0,0,0,0,0
1584021394031.25,-20,-58,18,0,0,0,0,0
1584021394062.5,-13,-57,26,0,0,0,0,0
1584021394093.75,-18,-57,23,0,0,0,0,0
1584021394125,-18,-58,20,0,0,0,0,0
1584021394156.25,-18,-58,19,0,0,0,0,0
1584021394187.5,-17,-57,21,0,0,0,0,0
1584021394218.75,-17,-58,19,0,0,0,0,0
1584021394250,-17,-58,20,0,0,0,0,0
1584021394281.25,-15,-58,22,0,0,0,0,0
1584021394312.5,-16,-58,20,0,0,0,0,0
1584021394343.75,-18,-59,20,0,0,0,0,0
1584021394375,-17,-59,22,0,0,0,0,0
1584021394406.25,-11,-58,24,0,0,0,0,0
1584021394437.5,-10,-57,24,0,0,0,0,0
1584021394468.75,-18,-57,23,0,0,0,0,0
1584021394500,-20,-58,21,0,0,0,0,0
1584021394531.25,-18,-58,21,0,0,0,0,0
1584021394562.5,-14,-58,21,0,0,0,0,0
1584021394593.75,-14,-58,22,0,0,0,0,0
1584021394625,-15,-58,24,0,0,0,0,0
1584021394656.25,-13,-58,24,0,0,0,0,0
1584021394687.5,-12,-58,23,0,0,0,0,0
1584021394718.75,-11,-58,23,0,0,0,0,0
1584021394750,-12,-58,21,0,0,0,0,0
1584021394781.25,-14,-58,21,0,0,0,0,0
1584021394812.5,-14,-57,23,0,0,0,0,0
1584021394843.75,-15,-58,20,0,0,0,0,0
1584021394875,-9,-59,21,0,0,0,0,0
1584021394906.25,-6,-58,24,0,0,0,0,0
1584021394937.5,-18,-58,17,0,0,0,0,0
1584021394968.75,-16,-59,18,0,0,0,0,0
1584021395000,-16,-58,24,0,0,0,0,0
1584021395031.25,-19,-57,23,0,0,0,0,0
1584021395062.5,-20,-58,21,0,0,0,0,0
1584021395093.75,-16,-59,20,0,0,0,0,0
1584021395125,-12,-58,21,0,0,0,0,0
1584021395156.25,-15,-58,20,0,0,0,0,0
1584021395187.5,-18,-58,20,0,0,0,0,0
1584021395218.75,-18,-58,20,0,0,0,0,0
1584021395250,-13,-58,22,0,0,0,0,0
1584021395281.25,-18,-58,19,0,0,0,0,0
1584021395312.5,-18,-58,19,0,0,0,0,0
1584021395343.75,-12,-59,22,0,0,0,0,0
1584021395375,-14,-57,23,0,0,0,0,0
1584021395406.25,-20,-57,22,0,0,0,0,0
1584021395437.5,-20,-59,19,0,0,0,0,0
1584021395468.75,-20,-58,20,0,0,0,0,0
1584021395500,-16,-58,21,0,0,0,0,0
1584021395531.25,-16,-58,20,0,0,0,0,0
1584021395562.5,-19,-57,21,0,0,0,0,0
1584021395593.75,-17,-58,21,0,0,0,0,0
1584021395625,-18,-57,20,0,0,0,0,0
1584021395656.25,-19,-57,20,0,0,0,0,0
1584021395687.5,-17,-58,20,0,0,0,0,0
1584021395718.75,-19,-58,20,0,0,0,0,0
1584021395750,-19,-57,20,0,0,0,0,0
1584021395781.25,-18,-57,21,0,0,0,0,0
1584021395812.5,-19,-57,21,0,0,0,0,0
1584021395843.75,-20,-58,18,0,0,0,0,0
1584021395875,-21,-57,19,0,0,0,0,0
1584021395906.25,-16,-58,21,0,0,0,0,0
1584021395937.5,-13,-58,22,0,0,0,0,0
1584021395968.75,-13,-58,22,0,0,0,0,0
1584021396000,-16,-57,23,0,0,0,0,0
1584021396031.25,-22,-58,19,0,0,0,0,0
1584021396062.5,-22,-58,19,0,0,0,0,0
1584021396093.75,-17,-58,21,0,0,0,0,0
1584021396125,-18,-58,20,0,0,0,0,0
1584021396156.25,-16,-58,20,0,0,0,0,0
1584021396187.5,-16,-58,21,0,0,0,0,0
1584021396218.75,-23,-58,20,0,0,0,0,0
1584021396250,-19,-58,21,0,0,0,0,0
1584021396281.25,-13,-57,23,0,0,0,0,0
1584021396312.5,-11,-57,23,0,0,0,0,0
1584021396343.75,-16,-56,21,0,0,0,0,0
1584021396375,-23,-58,19,0,0,0,0,0
1584021396406.25,-20,-58,20,0,0,0,0,0
1584021396437.5,-17,-58,21,0,0,0,0,0
1584021396468.75,-13,-57,24,0,0,0,0,0
1584021396500,-15,-57,23,0,0,0,0,0
1584021396531.25,-18,-57,22,0,0,0,0,0
1584021396562.5,-18,-58,21,0,0,0,0,0
1584021396593.75,-19,-58,20,0,0,0,0,0
1584021396625,-16,-57,21,0,0,0,0,0
1584021396656.25,-15,-58,22,0,0,0,0,0
1584021396687.5,-18,-57,21,0,0,0,0,0
1584021396718.75,-21,-59,18,0,0,0,0,0
1584021396750,-15,-58,21,0,0,0,0,0
1584021396781.25,-13,-55,24,0,0,0,0,0
1584021396812.5,-17,-55,21,0,0,0,0,0
1584021396843.75,-18,-57,20,0,0,0,0,0
1584021396875,-15,-59,23,0,0,0,0,0
1584021396906.25,-13,-59,24,0,0,0,0,0
1584021396937.5,-20,-59,19,0,0,0,0,0
1584021396968.75,-1,-59,26,0,0,0,0,0
1584021397000,-1,-56,26,0,0,0,0,0
1584021397031.25,-26,-57,11,0,0,0,0,0
1584021397062.5,-25,-58,12,0,0,0,0,0
1584021397093.75,-31,-57,11,0,0,0,0,0
1584021397125,-33,-56,10,0,0,0,0,0
1584021397156.25,-29,-55,14,0,0,0,0,0
1584021397187.5,-30,-54,14,0,0,0,0,0
1584021397218.75,-32,-56,10,0,0,0,0,0
1584021397250,-31,-57,10,0,0,0,0,0
1584021397281.25,-32,-58,9,0,0,0,0,0
1584021397312.5,-31,-58,9,0,0,0,0,0
1584021397343.75,-30,-57,9,0,0,0,0,0
1584021397375,-30,-56,10,0,0,0,0,0
1584021397406.25,-28,-56,10,0,0,0,0,0
1584021397437.5,-28,-57,9,0,0,0,0,0
1584021397468.75,-28,-57,8,0,0,0,0,0
1584021397500,-26,-56,11,0,0,0,0,0
1584021397531.25,-26,-55,15,0,0,0,0,0
1584021397562.5,-29,-56,13,0,0,0,0,0
1584021397593.75,-29,-57,12,0,0,0,0,0
1584021397625,-23,-57,13,0,0,0,0,0
1584021397656.25,-22,-58,11,0,0,0,0,0
1584021397687.5,-26,-57,5,0,0,0,0,0
1584021397718.75,-28,-56,9,0,0,0,0,0
1584021397750,-33,-55,13,0,0,0,0,0
1584021397781.25,-35,-57,10,0,0,0,0,0
1584021397812.5,-31,-57,9,0,0,0,0,0
1584021397843.75,-24,-56,9,0,0,0,0,0
1584021397875,-34,-55,5,0,0,0,0,0
1584021397906.25,-34,-56,7,0,0,0,0,0
1584021397937.5,-30,-57,7,0,0,0,0,0
1584021397968.75,-30,-56,4,0,0,0,0,0
1584021398000,-25,-55,8,0,0,0,0,0
1584021398031.25,-27,-53,9,0,0,0,0,0
1584021398062.5,-29,-53,9,0,0,0,0,0
1584021398093.75,-29,-55,7,0,0,0,0,0
1584021398125,-34,-57,1,0,0,0,0,0
1584021398156.25,-25,-57,1,0,0,0,0,0
1584021398187.5,-15,-58,2,0,0,0,0,0
1584021398218.75,-14,-56,4,0,0,0,0,0
1584021398250,-16,-51,-3,0,0,0,0,0
1584021398281.25,-16,-51,-8,0,0,0,0,0
1584021398312.5,-17,-53,-15,0,0,0,0,0
1584021398343.75,-24,-57,-22,0,0,0,0,0
1584021398375,-30,-57,-25,0,0,0,0,0
1584021398406.25,-45,-50,-29,0,0,0,0,0
1584021398437.5,-55,-44,-29,0,0,0,0,0
1584021398468.75,-55,-40,-25,0,0,0,0,0
1584021398500,-56,-31,-14,0,0,0,0,0
1584021398531.25,-60,-27,-9,0,0,0,0,0
1584021398562.5,-54,-26,-5,0,0,0,0,0
1584021398593.75,-48,-30,4,0,0,0,0,0
1584021398625,-47,-34,12,0,0,0,0,0
1584021398656.25,-28,-32,30,0,0,0,0,0
1584021398687.5,-25,-25,37,0,0,0,0,0
1584021398718.75,-47,-8,50,0,0,0,0,0
1584021398750,-49,3,56,0,0,0,0,0
1584021398781.25,-56,9,60,0,0,0,0,0
1584021398812.5,-43,14,63,0,0,0,0,0
1584021398843.75,-38,15,58,0,0,0,0,0
1584021398875,-47,17,52,0,0,0,0,0
1584021398906.25,-53,18,50,0,0,0,0,0
1584021398937.5,-26,15,64,0,0,0,0,0
1584021398968.75,-13,10,61,0,0,0,0,0
1584021399000,-18,9,58,0,0,0,0,0
1584021399031.25,-17,9,57,0,0,0,0,0
1584021399062.5,-15,13,57,0,0,0,0,0
1584021399093.75,-17,16,59,0,0,0,0,0
1584021399125,-40,32,58,0,0,0,0,0
1584021399156.25,-24,35,71,0,0,0,0,0
1584021399187.5,-19,31,63,0,0,0,0,0
1584021399218.75,-20,25,46,0,0,0,0,0
1584021399250,-17,27,51,0,0,0,0,0
1584021399281.25,-6,32,56,0,0,0,0,0
1584021399312.5,-5,39,46,0,0,0,0,0
1584021399343.75,-11,41,43,0,0,0,0,0
1584021399375,-6,39,53,0,0,0,0,0
1584021399406.25,-9,39,60,0,0,0,0,0
1584021399437.5,-7,32,55,0,0,0,0,0
1584021399468.75,8,28,54,0,0,0,0,0
1584021399500,-17,28,49,0,0,0,0,0
1584021399531.25,-15,40,62,0,0,0,0,0
1584021399562.5,-5,56,86,0,0,0,0,0
1584021399593.75,-13,57,80,0,0,0,0,0
1584021399625,-47,52,64,0,0,0,0,0
1584021399656.25,-34,50,74,0,0,0,0,0
1584021399687.5,-32,35,56,0,0,0,0,0
1584021399718.75,-47,28,52,0,0,0,0,0
1584021399750,-34,24,56,0,0,0,0,0
1584021399781.25,-17,6,46,0,0,0,0,0
1584021399812.5,-13,-8,55,0,0,0,0,0
1584021399843.75,-8,-14,56,0,0,0,0,0
1584021399875,-2,-21,54,0,0,0,0,0
1584021399906.25,0,-23,54,0,0,0,0,0
1584021399937.5,-14,-26,50,0,0,0,0,0
1584021399968.75,-40,-29,42,0,0,0,0,0
1584021400000,-43,-32,38,0,0,0,0,0
1584021400031.25,-38,-38,37,0,0,0,0,0
1584021400062.5,-27,-43,39,0,0,0,0,0
1584021400093.75,-26,-50,40,0,0,0,0,0
1584021400125,-23,-48,35,0,0,0,0,0
1584021400156.25,-37,-46,17,0,0,0,0,0
1584021400187.5,-50,-38,-5,0,0,0,0,0
1584021400218.75,-54,-36,-4,0,0,0,0,0
1584021400250,-54,-35,5,0,0,0,0,0
1584021400281.25,-38,-39,19,0,0,0,0,0
1584021400312.5,-28,-41,21,0,0,0,0,0
1584021400343.75,2,-47,36,0,0,0,0,0
1584021400375,14,-56,31,0,0,0,0,0
1584021400406.25,10,-55,24,0,0,0,0,0
1584021400437.5,-10,-50,29,0,0,0,0,0
1584021400468.75,-21,-50,18,0,0,0,0,0
1584021400500,-37,-47,3,0,0,0,0,0
1584021400531.25,-23,-60,25,0,0,0,0,0
1584021400562.5,-15,-63,30,0,0,0,0,0
1584021400593.75,-15,-63,30,0,0,0,0,0
1584021400625,-1,-55,36,0,0,0,0,0
1584021400656.25,7,-52,21,0,0,0,0,0
1584021400687.5,-38,-40,-16,0,0,0,0,0
1584021400718.75,-62,-28,-13,0,0,0,0,0
1584021400750,-78,-23,17,0,0,0,0,0
1584021400781.25,-32,-24,28,0,0,0,0,0
1584021400812.5,-21,-17,38,0,0,0,0,0
1584021400843.75,-16,-9,66,0,0,0,0,0
1584021400875,-16,-9,77,0,0,0,0,0
1584021400906.25,-10,-13,91,0,0,0,0,0
1584021400937.5,-9,-12,73,0,0,0,0,0
1584021400968.75,-4,-12,64,0,0,0,0,0
1584021401000,-29,-12,64,0,0,0,0,0
1584021401031.25,-53,-16,66,0,0,0,0,0
1584021401062.5,-82,-19,70,0,0,0,0,0
1584021401093.75,-42,-23,75,0,0,0,0,0
1584021401125,-39,-26,64,0,0,0,0,0
1584021401156.25,-61,-39,35,0,0,0,0,0
1584021401187.5,-30,-40,24,0,0,0,0,0
1584021401218.75,-10,-45,11,0,0,0,0,0
1584021401250,18,-53,-24,0,0,0,0,0
1584021401281.25,21,-56,-41,0,0,0,0,0
1584021401312.5,0,-49,-47,0,0,0,0,0
1584021401343.75,51,-19,-24,0,0,0,0,0
1584021401375,57,-14,-42,0,0,0,0,0
1584021401406.25,35,20,-31,0,0,0,0,0
1584021401437.5,-20,51,-11,0,0,0,0,0
1584021401468.75,-46,57,1,0,0,0,0,0
1584021401500,-43,58,-62,0,0,0,0,0
1584021401531.25,-42,51,-128,0,0,0,0,0
1584021401562.5,-54,7,-128,0,0,0,0,0
1584021401593.75,-41,-3,-128,0,0,0,0,0
1584021401625,-29,-7,-98,0,0,0,0,0
1584021401656.25,-4,0,-59,0,0,0,0,0
1584021401687.5,0,6,-64,0,0,0,0,0
1584021401718.75,10,15,-79,0,0,0,0,0
1584021401750,9,17,-82,0,0,0,0,0
1584021401781.25,1,15,-76,0,0,0,0,0
1584021401812.5,-19,5,-59,0,0,0,0,0
1584021401843.75,-27,3,-52,0,0,0,0,0
1584021401875,-31,3,-40,0,0,0,0,0
1584021401906.25,-23,9,-37,0,0,0,0,0
1584021401937.5,-22,14,-40,0,0,0,0,0
1584021401968.75,-20,16,-49,0,0,0,0,0
1584021402000,-25,15,-45,0,0,0,0,0
1584021402031.25,-26,14,-44,0,0,0,0,0
1584021402062.5,-28,15,-41,0,0,0,0,0
1584021402093.75,-27,16,-39,0,0,0,0,0
1584021402125,-26,24,-32,0,0,0,0,0
1584021402156.25,-21,33,-46,0,0,0,0,0
1584021402187.5,-29,40,-50,0,0,0,0,0
1584021402218.75,-31,44,-46,0,0,0,0,0
1584021402250,-32,46,-48,0,0,0,0,0
1584021402281.25,-36,56,-52,0,0,0,0,0
1584021402312.5,-31,65,-59,0,0,0,0,0
1584021402343.75,-30,66,-65,0,0,0,0,0
1584021402375,-32,71,-64,0,0,0,0,0
1584021402406.25,-33,66,-61,0,0,0,0,0
1584021402437.5,-32,46,-53,0,0,0,0,0
1584021402468.75,-31,51,-37,0,0,0,0,0
1584021402500,-31,56,-35,0,0,0,0,0
1584021402531.25,-27,60,-22,0,0,0,0,0
1584021402562.5,-24,50,-15,0,0,0,0,0
1584021402593.75,-28,47,-12,0,0,0,0,0
1584021402625,-27,48,-8,0,0,0,0,0
1584021402656.25,-24,53,-7,0,0,0,0,0
1584021402687.5,-24,60,-8,0,0,0,0,0
1584021402718.75,-31,54,-10,0,0,0,0,0
1584021402750,-34,51,-15,0,0,0,0,0
1584021402781.25,-35,47,-21,0,0,0,0,0
1584021402812.5,-36,53,-27,0,0,0,0,0
1584021402843.75,-37,52,-32,0,0,0,0,0
1584021402875,-37,49,-34,0,0,0,0,0
1584021402906.25,-34,46,-32,0,0,0,0,0
1584021402937.5,-30,42,-37,0,0,0,0,0
1584021402968.75,-28,43,-45,0,0,0,0,0
1584021403000,-29,44,-51,0,0,0,0,0
1584021403031.25,-28,51,-55,0,0,0,0,0
1584021403062.5,-21,53,-62,0,0,0,0,0
1584021403093.75,-6,62,-33,0,0,0,0,0
1584021403125,-9,63,-8,0,0,0,0,0
1584021403156.25,-8,56,-4,0,0,0,0,0
1584021403187.5,-22,51,-3,0,0,0,0,0
1584021403218.75,-27,49,-6,0,0,0,0,0
1584021403250,-12,105,63,0,0,0,0,0
1584021403281.25,5,51,30,0,0,0,0,0
1584021403312.5,-23,72,-14,0,0,0,0,0
1584021403343.75,-30,91,-8,0,0,0,0,0
1584021403375,-17,68,2,0,0,0,0,0
1584021403406.25,-14,58,2,0,0,0,0,0
1584021403437.5,-26,49,-13,0,0,0,0,0
1584021403468.75,-24,45,-12,0,0,0,0,0
1584021403500,-28,44,-6,0,0,0,0,0
1584021403531.25,-24,52,-4,0,0,0,0,0
1584021403562.5,-27,56,-5,0,0,0,0,0
1584021403593.75,-35,63,-9,0,0,0,0,0
1584021403625,-41,68,-10,0,0,0,0,0
1584021403656.25,-38,66,-12,0,0,0,0,0
1584021403687.5,-38,67,4,0,0,0,0,0
1584021403718.75,-34,63,20,0,0,0,0,0
1584021403750,-22,54,7,0,0,0,0,0
1584021403781.25,-33,40,-20,0,0,0,0,0
1584021403812.5,-44,40,-20,0,0,0,0,0
1584021403843.75,-29,46,10,0,0,0,0,0
1584021403875,-35,49,10,0,0,0,0,0
1584021403906.25,-47,49,3,0,0,0,0,0
1584021403937.5,-18,43,15,0,0,0,0,0
1584021403968.75,1,55,19,0,0,0,0,0
1584021404000,-58,49,-46,0,0,0,0,0
1584021404031.25,-48,41,-71,0,0,0,0,0
1584021404062.5,-47,42,-70,0,0,0,0,0
1584021404093.75,-33,38,-41,0,0,0,0,0
1584021404125,-24,32,-48,0,0,0,0,0
1584021404156.25,-35,31,-54,0,0,0,0,0
1584021404187.5,-37,34,-54,0,0,0,0,0
1584021404218.75,-30,37,-43,0,0,0,0,0
1584021404250,-24,33,-45,0,0,0,0,0
1584021404281.25,-20,33,-42,0,0,0,0,0
1584021404312.5,-16,35,-43,0,0,0,0,0
1584021404343.75,-23,47,-33,0,0,0,0,0
1584021404375,-6,59,-24,0,0,0,0,0
1584021404406.25,-33,50,-15,0,0,0,0,0
1584021404437.5,-45,43,-20,0,0,0,0,0
1584021404468.75,-49,38,-30,0,0,0,0,0
1584021404500,-53,35,-36,0,0,0,0,0
1584021404531.25,-53,26,-40,0,0,0,0,0
1584021404562.5,-47,43,-22,0,0,0,0,0
1584021404593.75,-51,25,-33,0,0,0,0,0
1584021404625,-42,35,-47,0,0,0,0,0
1584021404656.25,-43,37,-47,0,0,0,0,0
1584021404687.5,-41,33,-52,0,0,0,0,0
1584021404718.75,-56,37,-29,0,0,0,0,0
1584021404750,-53,33,-25,0,0,0,0,0
1584021404781.25,-55,32,-34,0,0,0,0,0
1584021404812.5,-49,30,-28,0,0,0,0,0
1584021404843.75,-49,27,-33,0,0,0,0,0
1584021404875,-51,30,-34,0,0,0,0,0
1584021404906.25,-56,37,-21,0,0,0,0,0
1584021404937.5,-64,38,-8,0,0,0,0,0
1584021404968.75,-63,34,1,0,0,0,0,0
1584021405000,-52,25,-5,0,0,0,0,0
1584021405031.25,-47,22,-8,0,0,0,0,0
1584021405062.5,-82,19,-32,0,0,0,0,0
1584021405093.75,-106,20,-50,0,0,0,0,0
1584021405125,-63,22,-36,0,0,0,0,0
1584021405156.25,-60,16,-14,0,0,0,0,0
1584021405187.5,-31,11,-7,0,0,0,0,0
1584021405218.75,-25,7,-9,0,0,0,0,0
1584021405250,-26,5,-11,0,0,0,0,0
1584021405281.25,-47,-2,-28,0,0,0,0,0
1584021405312.5,-68,3,-31,0,0,0,0,0
1584021405343.75,-75,3,-29,0,0,0,0,0
1584021405375,-65,2,-17,0,0,0,0,0
1584021405406.25,-61,6,-5,0,0,0,0,0
1584021405437.5,-70,9,-2,0,0,0,0,0
1584021405468.75,-73,7,0,0,0,0,0,0
1584021405500,-49,15,13,0,0,0,0,0
1584021405531.25,-31,10,15,0,0,0,0,0
1584021405562.5,-54,18,7,0,0,0,0,0
1584021405593.75,-59,21,5,0,0,0,0,0
1584021405625,-56,28,1,0,0,0,0,0
1584021405656.25,-51,33,-1,0,0,0,0,0
1584021405687.5,-52,41,-7,0,0,0,0,0
1584021405718.75,-51,43,-4,0,0,0,0,0
1584021405750,-49,45,-2,0,0,0,0,0
1584021405781.25,-42,47,0,0,0,0,0,0
1584021405812.5,-40,49,1,0,0,0,0,0
1584021405843.75,-37,54,3,0,0,0,0,0
1584021405875,-36,61,4,0,0,0,0,0
1584021405906.25,-41,69,8,0,0,0,0,0
1584021405937.5,-36,72,14,0,0,0,0,0
1584021405968.75,-39,76,10,0,0,0,0,0
1584021406000,-40,63,-7,0,0,0,0,0
1584021406031.25,-49,65,-5,0,0,0,0,0
1584021406062.5,-56,67,3,0,0,0,0,0
1584021406093.75,-48,60,13,0,0,0,0,0
1584021406125,-29,53,18,0,0,0,0,0
1584021406156.25,-25,52,16,0,0,0,0,0
1584021406187.5,-54,63,17,0,0,0,0,0
1584021406218.75,-70,69,14,0,0,0,0,0
1584021406250,-71,73,4,0,0,0,0,0
1584021406281.25,-52,73,-2,0,0,0,0,0
1584021406312.5,-32,69,11,0,0,0,0,0
1584021406343.75,-20,59,26,0,0,0,0,0
1584021406375,-25,56,27,0,0,0,0,0
1584021406406.25,-52,51,18,0,0,0,0,0
1584021406437.5,-36,44,29,0,0,0,0,0
1584021406468.75,-33,44,31,0,0,0,0,0
1584021406500,-28,44,32,0,0,0,0,0
1584021406531.25,-17,44,44,0,0,0,0,0
1584021406562.5,-20,41,41,0,0,0,0,0
1584021406593.75,-18,34,40,0,0,0,0,0
1584021406625,-11,32,42,0,0,0,0,0
1584021406656.25,1,33,44,0,0,0,0,0
1584021406687.5,-16,24,26,0,0,0,0,0
1584021406718.75,-19,19,25,0,0,0,0,0
1584021406750,-26,17,50,0,0,0,0,0
1584021406781.25,-28,18,61,0,0,0,0,0
1584021406812.5,-17,21,55,0,0,0,0,0
1584021406843.75,-19,7,49,0,0,0,0,0
1584021406875,-43,24,64,0,0,0,0,0
1584021406906.25,29,-60,40,0,0,0,0,0
1584021406937.5,23,28,65,0,0,0,0,0
1584021406968.75,-28,29,49,0,0,0,0,0
1584021407000,-20,25,58,0,0,0,0,0
1584021407031.25,-13,26,62,0,0,0,0,0
1584021407062.5,-15,21,61,0,0,0,0,0
1584021407093.75,-22,23,59,0,0,0,0,0
1584021407125,-21,26,56,0,0,0,0,0
1584021407156.25,-20,16,48,0,0,0,0,0
1584021407187.5,-23,18,46,0,0,0,0,0
1584021407218.75,-18,21,45,0,0,0,0,0
1584021407250,-4,24,60,0,0,0,0,0
1584021407281.25,-6,29,64,0,0,0,0,0
1584021407312.5,-22,31,56,0,0,0,0,0
1584021407343.75,-20,32,52,0,0,0,0,0
1584021407375,-15,30,53,0,0,0,0,0
1584021407406.25,-10,30,64,0,0,0,0,0
1584021407437.5,-9,31,61,0,0,0,0,0
1584021407468.75,-11,30,58,0,0,0,0,0
1584021407500,-17,24,55,0,0,0,0,0
1584021407531.25,-15,24,53,0,0,0,0,0
1584021407562.5,-16,25,51,0,0,0,0,0
1584021407593.75,-16,26,53,0,0,0,0,0
1584021407625,-12,30,59,0,0,0,0,0
1584021407656.25,-12,28,52,0,0,0,0,0
1584021407687.5,-9,27,50,0,0,0,0,0
1584021407718.75,-22,24,41,0,0,0,0,0
1584021407750,-24,23,45,0,0,0,0,0
1584021407781.25,-45,26,36,0,0,0,0,0
1584021407812.5,-31,12,43,0,0,0,0,0
1584021407843.75,-26,16,46,0,0,0,0,0
1584021407875,-8,21,60,0,0,0,0,0
1584021407906.25,-17,28,59,0,0,0,0,0
1584021407937.5,-31,36,53,0,0,0,0,0
1584021407968.75,-51,49,54,0,0,0,0,0
1584021408000,-49,52,56,0,0,0,0,0
1584021408031.25,-37,35,53,0,0,0,0,0
1584021408062.5,-34,30,56,0,0,0,0,0
1584021408093.75,-33,28,55,0,0,0,0,0
