Timestamp,ACC_X,ACC_Y,ACC_Z,Note,AGG,ED,SIB,Condition
1565888662000,-9,-59,8,0,0,0,0,0
1565888662031.25,-3,-57,8,0,0,0,0,0
1565888662062.5,1,-51,8,0,0,0,0,0
1565888662093.75,-5,-34,11,0,0,0,0,0
1565888662125,-18,-29,8,0,0,0,0,0
1565888662156.25,-21,-33,10,0,0,0,0,0
1565888662187.5,-12,-36,13,0,0,0,0,0
1565888662218.75,-5,-35,13,0,0,0,0,0
1565888662250,-4,-39,16,0,0,0,0,0
1565888662281.25,-8,-44,18,0,0,0,0,0
1565888662312.5,-10,-55,19,0,0,0,0,0
1565888662343.75,-7,-60,16,0,0,0,0,0
1565888662375,-16,-63,12,0,0,0,0,0
1565888662406.25,-24,-72,10,0,0,0,0,0
1565888662437.5,-15,-85,9,0,0,0,0,0
1565888662468.75,-7,-89,8,0,0,0,0,0
1565888662500,-4,-88,10,0,0,0,0,0
1565888662531.25,-10,-92,7,0,0,0,0,0
1565888662562.5,-10,-94,5,0,0,0,0,0
1565888662593.75,-11,-94,8,0,0,0,0,0
1565888662625,-10,-95,0,0,0,0,0,0
1565888662656.25,-24,-107,-19,0,0,0,0,0
1565888662687.5,-32,-107,-23,0,0,0,0,0
1565888662718.75,-22,-99,-13,0,0,0,0,0
1565888662750,-11,-98,-12,0,0,0,0,0
1565888662781.25,-31,-92,-10,0,0,0,0,0
1565888662812.5,-38,-92,-13,0,0,0,0,0
1565888662843.75,-44,-94,-10,0,0,0,0,0
1565888662875,-45,-91,-11,0,0,0,0,0
1565888662906.25,-32,-81,7,0,0,0,0,0
1565888662937.5,-46,-65,-2,0,0,0,0,0
1565888662968.75,-48,-62,-13,0,0,0,0,0
1565888663000,-37,-54,-21,0,0,0,0,0
1565888663031.25,-35,-52,-19,0,0,0,0,0
1565888663062.5,-24,-47,-13,0,0,0,0,0
1565888663093.75,-21,-42,-13,0,0,0,0,0
1565888663125,-30,-34,-26,0,0,0,0,0
1565888663156.25,-26,-29,-32,0,0,0,0,0
1565888663187.5,-42,-11,-49,0,0,0,0,0
1565888663218.75,-38,-4,-57,0,0,0,0,0
1565888663250,-22,6,-58,0,0,0,0,0
1565888663281.25,-22,7,-56,0,0,0,0,0
1565888663312.5,-20,7,-50,0,0,0,0,0
1565888663343.75,-24,4,-48,0,0,0,0,0
1565888663375,-22,2,-38,0,0,0,0,0
1565888663406.25,-23,-4,-26,0,0,0,0,0
1565888663437.5,-33,0,-28,0,0,0,0,0
1565888663468.75,-42,6,-36,0,0,0,0,0
1565888663500,-27,6,-28,0,0,0,0,0
1565888663531.25,-37,5,-12,0,0,0,0,0
1565888663562.5,-46,8,-9,0,0,0,0,0
1565888663593.75,-53,12,-6,0,0,0,0,0
1565888663625,-53,15,-5,0,0,0,0,0
1565888663656.25,-55,17,-11,0,0,0,0,0
1565888663687.5,-57,20,-13,0,0,0,0,0
1565888663718.75,-49,24,-12,0,0,0,0,0
1565888663750,-47,24,-14,0,0,0,0,0
1565888663781.25,-50,25,-16,0,0,0,0,0
1565888663812.5,-54,24,-15,0,0,0,0,0
1565888663843.75,-52,21,-14,0,0,0,0,0
1565888663875,-46,22,-12,0,0,0,0,0
1565888663906.25,-45,20,-13,0,0,0,0,0
1565888663937.5,-23,13,-9,0,0,0,0,0
1565888663968.75,-17,9,-8,0,0,0,0,0
1565888664000,-24,0,-17,0,0,0,0,0
1565888664031.25,-35,-8,-23,0,0,0,0,0
1565888664062.5,-63,-17,-43,0,0,0,0,0
1565888664093.75,-65,-18,-63,0,0,0,0,0
1565888664125,-66,-12,-83,0,0,0,0,0
1565888664156.25,-66,-16,-91,0,0,0,0,0
1565888664187.5,-65,-19,-87,0,0,0,0,0
1565888664218.75,-41,-20,-74,0,0,0,0,0
1565888664250,-44,-19,-69,0,0,0,0,0
1565888664281.25,-36,-20,-65,0,0,0,0,0
1565888664312.5,-35,-21,-63,0,0,0,0,0
1565888664343.75,-39,-19,-59,0,0,0,0,0
1565888664375,-38,-17,-58,0,0,0,0,0
1565888664406.25,-35,-13,-58,0,0,0,0,0
1565888664437.5,-36,-12,-59,0,0,0,0,0
1565888664468.75,-30,-10,-63,0,0,0,0,0
1565888664500,-27,-9,-64,0,0,0,0,0
1565888664531.25,-27,-3,-64,0,0,0,0,0
1565888664562.5,-29,2,-63,0,0,0,0,0
1565888664593.75,-29,6,-60,0,0,0,0,0
1565888664625,-29,11,-51,0,0,0,0,0
1565888664656.25,-31,13,-47,0,0,0,0,0
1565888664687.5,-32,12,-42,0,0,0,0,0
1565888664718.75,-33,12,-42,0,0,0,0,0
1565888664750,-34,10,-45,0,0,0,0,0
1565888664781.25,-36,9,-43,0,0,0,0,0
1565888664812.5,-37,12,-40,0,0,0,0,0
1565888664843.75,-39,13,-38,0,0,0,0,0
1565888664875,-41,18,-34,0,0,0,0,0
1565888664906.25,-42,20,-32,0,0,0,0,0
1565888664937.5,-41,23,-32,0,0,0,0,0
1565888664968.75,-42,27,-36,0,0,0,0,0
1565888665000,-43,28,-36,0,0,0,0,0
1565888665031.25,-40,33,-33,0,0,0,0,0
1565888665062.5,-37,34,-32,0,0,0,0,0
1565888665093.75,-35,39,-31,0,0,0,0,0
1565888665125,-33,40,-30,0,0,0,0,0
1565888665156.25,-29,42,-31,0,0,0,0,0
1565888665187.5,-30,43,-31,0,0,0,0,0
1565888665218.75,-30,45,-30,0,0,0,0,0
1565888665250,-32,45,-30,0,0,0,0,0
1565888665281.25,-31,42,-22,0,0,0,0,0
1565888665312.5,-33,42,-21,0,0,0,0,0
1565888665343.75,-36,43,-27,0,0,0,0,0
1565888665375,-36,49,-27,0,0,0,0,0
1565888665406.25,-36,50,-26,0,0,0,0,0
1565888665437.5,-39,45,-36,0,0,0,0,0
1565888665468.75,-42,41,-40,0,0,0,0,0
1565888665500,-48,37,-36,0,0,0,0,0
1565888665531.25,-48,38,-38,0,0,0,0,0
1565888665562.5,-45,39,-45,0,0,0,0,0
1565888665593.75,-40,41,-43,0,0,0,0,0
1565888665625,-38,34,-49,0,0,0,0,0
1565888665656.25,-34,31,-43,0,0,0,0,0
1565888665687.5,-29,29,-29,0,0,0,0,0
1565888665718.75,-33,29,-32,0,0,0,0,0
1565888665750,-33,34,-40,0,0,0,0,0
1565888665781.25,-30,36,-38,0,0,0,0,0
1565888665812.5,-24,41,-31,0,0,0,0,0
1565888665843.75,-26,40,-28,0,0,0,0,0
1565888665875,-35,41,-36,0,0,0,0,0
1565888665906.25,-38,39,-33,0,0,0,0,0
1565888665937.5,-37,39,-28,0,0,0,0,0
1565888665968.75,-39,40,-23,0,0,0,0,0
1565888666000,-44,41,-22,0,0,0,0,0
1565888666031.25,-49,44,-21,0,0,0,0,0
1565888666062.5,-51,47,-22,0,0,0,0,0
1565888666093.75,-50,47,-26,0,0,0,0,0
1565888666125,-52,46,-30,0,0,0,0,0
1565888666156.25,-58,48,-34,0,0,0,0,0
1565888666187.5,-56,46,-36,0,0,0,0,0
1565888666218.75,-54,44,-32,0,0,0,0,0
1565888666250,-53,41,-32,0,0,0,0,0
1565888666281.25,-51,37,-32,0,0,0,0,0
1565888666312.5,-47,28,-25,0,0,0,0,0
1565888666343.75,-42,24,-22,0,0,0,0,0
1565888666375,-38,21,-22,0,0,0,0,0
1565888666406.25,-40,20,-22,0,0,0,0,0
1565888666437.5,-41,20,-21,0,0,0,0,0
1565888666468.75,-43,20,-20,0,0,0,0,0
1565888666500,-46,22,-17,0,0,0,0,0
1565888666531.25,-49,24,-17,0,0,0,0,0
1565888666562.5,-53,28,-19,0,0,0,0,0
1565888666593.75,-52,28,-23,0,0,0,0,0
1565888666625,-51,29,-23,0,0,0,0,0
1565888666656.25,-49,31,-23,0,0,0,0,0
1565888666687.5,-47,32,-23,0,0,0,0,0
1565888666718.75,-43,34,-20,0,0,0,0,0
1565888666750,-41,35,-20,0,0,0,0,0
1565888666781.25,-40,35,-23,0,0,0,0,0
1565888666812.5,-41,35,-25,0,0,0,0,0
1565888666843.75,-43,32,-21,0,0,0,0,0
1565888666875,-45,29,-18,0,0,0,0,0
1565888666906.25,-46,21,-22,0,0,0,0,0
1565888666937.5,-47,17,-28,0,0,0,0,0
1565888666968.75,-50,12,-32,0,0,0,0,0
1565888667000,-47,4,-32,0,0,0,0,0
1565888667031.25,-49,-4,-33,0,0,0,0,0
1565888667062.5,-37,-14,-23,0,0,0,0,0
1565888667093.75,-31,-22,-21,0,0,0,0,0
1565888667125,-36,-41,-35,0,0,0,0,0
1565888667156.25,-35,-54,-42,0,0,0,0,0
1565888667187.5,-28,-69,-33,0,0,0,0,0
1565888667218.75,-34,-81,-34,0,0,0,0,0
1565888667250,-43,-94,-42,0,0,0,0,0
1565888667281.25,-39,-88,-36,0,0,0,0,0
1565888667312.5,-37,-72,-22,0,0,0,0,0
1565888667343.75,-25,-68,-15,0,0,0,0,0
1565888667375,-17,-63,-10,0,0,0,0,0
1565888667406.25,-23,-69,-28,0,0,0,0,0
1565888667437.5,-25,-67,-37,0,0,0,0,0
1565888667468.75,-37,-60,-39,0,0,0,0,0
1565888667500,-32,-55,-40,0,0,0,0,0
1565888667531.25,-39,-56,-49,0,0,0,0,0
1565888667562.5,-37,-56,-46,0,0,0,0,0
1565888667593.75,-26,-55,-41,0,0,0,0,0
1565888667625,-24,-55,-40,0,0,0,0,0
1565888667656.25,-12,-53,-41,0,0,0,0,0
1565888667687.5,-19,-51,-44,0,0,0,0,0
1565888667718.75,-28,-50,-45,0,0,0,0,0
1565888667750,-22,-50,-45,0,0,0,0,0
1565888667781.25,-14,-46,-48,0,0,0,0,0
1565888667812.5,-20,-34,-46,0,0,0,0,0
1565888667843.75,-12,-27,-49,0,0,0,0,0
1565888667875,-26,-17,-50,0,0,0,0,0
1565888667906.25,-26,-10,-40,0,0,0,0,0
1565888667937.5,-46,5,-60,0,0,0,0,0
1565888667968.75,-43,12,-58,0,0,0,0,0
1565888668000,-20,30,-28,0,0,0,0,0
1565888668031.25,-19,38,-19,0,0,0,0,0
1565888668062.5,-3,42,-6,0,0,0,0,0
1565888668093.75,-3,39,-4,0,0,0,0,0
1565888668125,-41,31,0,0,0,0,0,0
1565888668156.25,-48,32,7,0,0,0,0,0
1565888668187.5,-78,33,9,0,0,0,0,0
1565888668218.75,-84,32,12,0,0,0,0,0
1565888668250,-71,35,20,0,0,0,0,0
1565888668281.25,-59,35,19,0,0,0,0,0
1565888668312.5,-46,38,18,0,0,0,0,0
1565888668343.75,-34,37,29,0,0,0,0,0
1565888668375,-37,34,37,0,0,0,0,0
1565888668406.25,-29,30,54,0,0,0,0,0
1565888668437.5,-26,25,59,0,0,0,0,0
1565888668468.75,-36,31,60,0,0,0,0,0
1565888668500,-36,32,63,0,0,0,0,0
1565888668531.25,-8,32,70,0,0,0,0,0
1565888668562.5,2,29,71,0,0,0,0,0
1565888668593.75,0,21,69,0,0,0,0,0
1565888668625,-20,16,66,0,0,0,0,0
1565888668656.25,-20,12,63,0,0,0,0,0
1565888668687.5,-14,8,60,0,0,0,0,0
1565888668718.75,-19,2,58,0,0,0,0,0
1565888668750,-31,-11,44,0,0,0,0,0
1565888668781.25,-31,-3,41,0,0,0,0,0
1565888668812.5,-17,5,48,0,0,0,0,0
1565888668843.75,-16,16,53,0,0,0,0,0
1565888668875,-34,22,71,0,0,0,0,0
1565888668906.25,-35,14,66,0,0,0,0,0
1565888668937.5,-46,16,38,0,0,0,0,0
1565888668968.75,-61,15,27,0,0,0,0,0
1565888669000,-41,11,12,0,0,0,0,0
1565888669031.25,-107,-6,-53,0,0,0,0,0
1565888669062.5,-115,-11,-67,0,0,0,0,0
1565888669093.75,-92,4,-50,0,0,0,0,0
1565888669125,-88,10,-42,0,0,0,0,0
1565888669156.25,-82,18,-25,0,0,0,0,0
1565888669187.5,-69,27,-19,0,0,0,0,0
1565888669218.75,-50,40,-14,0,0,0,0,0
1565888669250,-47,42,-16,0,0,0,0,0
1565888669281.25,-8,42,-4,0,0,0,0,0
1565888669312.5,11,41,15,0,0,0,0,0
1565888669343.75,33,45,29,0,0,0,0,0
1565888669375,45,43,30,0,0,0,0,0
1565888669406.25,72,37,46,0,0,0,0,0
1565888669437.5,51,26,52,0,0,0,0,0
1565888669468.75,39,21,56,0,0,0,0,0
1565888669500,33,19,68,0,0,0,0,0
1565888669531.25,26,12,68,0,0,0,0,0
1565888669562.5,20,11,68,0,0,0,0,0
1565888669593.75,21,12,69,0,0,0,0,0
1565888669625,-2,-5,71,0,0,0,0,0
1565888669656.25,-19,-11,78,0,0,0,0,0
1565888669687.5,4,15,90,0,0,0,0,0
1565888669718.75,-14,20,65,0,0,0,0,0
1565888669750,-58,39,42,0,0,0,0,0
1565888669781.25,-50,39,41,0,0,0,0,0
1565888669812.5,7,57,60,0,0,0,0,0
1565888669843.75,8,60,53,0,0,0,0,0
1565888669875,2,65,46,0,0,0,0,0
1565888669906.25,7,62,37,0,0,0,0,0
1565888669937.5,3,59,29,0,0,0,0,0
1565888669968.75,2,57,19,0,0,0,0,0
1565888670000,5,55,16,0,0,0,0,0
1565888670031.25,3,52,16,0,0,0,0,0
1565888670062.5,-4,52,19,0,0,0,0,0
1565888670093.75,3,57,19,0,0,0,0,0
1565888670125,6,58,19,0,0,0,0,0
1565888670156.25,26,60,22,0,0,0,0,0
1565888670187.5,31,62,18,0,0,0,0,0
1565888670218.75,22,62,15,0,0,0,0,0
1565888670250,29,66,18,0,0,0,0,0
1565888670281.25,22,64,-9,0,0,0,0,0
1565888670312.5,-5,47,-18,0,0,0,0,0
1565888670343.75,-10,54,-3,0,0,0,0,0
1565888670375,11,67,20,0,0,0,0,0
1565888670406.25,14,66,16,0,0,0,0,0
1565888670437.5,-15,65,-13,0,0,0,0,0
1565888670468.75,0,68,0,0,0,0,0,0
1565888670500,17,64,13,0,0,0,0,0
1565888670531.25,3,58,2,0,0,0,0,0
1565888670562.5,-28,56,-4,0,0,0,0,0
1565888670593.75,-23,60,-6,0,0,0,0,0
1565888670625,-36,59,-11,0,0,0,0,0
1565888670656.25,-25,60,-2,0,0,0,0,0
1565888670687.5,-21,59,1,0,0,0,0,0
1565888670718.75,-22,51,-4,0,0,0,0,0
1565888670750,-22,51,-8,0,0,0,0,0
1565888670781.25,-21,51,-16,0,0,0,0,0
1565888670812.5,-17,52,-16,0,0,0,0,0
1565888670843.75,-6,49,-15,0,0,0,0,0
1565888670875,0,48,-15,0,0,0,0,0
1565888670906.25,2,42,-24,0,0,0,0,0
1565888670937.5,-1,41,-33,0,0,0,0,0
1565888670968.75,-5,43,-37,0,0,0,0,0
1565888671000,4,41,-43,0,0,0,0,0
1565888671031.25,-2,35,-51,0,0,0,0,0
1565888671062.5,-2,34,-57,0,0,0,0,0
1565888671093.75,-1,32,-62,0,0,0,0,0
1565888671125,-4,32,-73,0,0,0,0,0
1565888671156.25,-2,37,-72,0,0,0,0,0
1565888671187.5,0,39,-73,0,0,0,0,0
1565888671218.75,-2,36,-73,0,0,0,0,0
1565888671250,-9,34,-69,0,0,0,0,0
1565888671281.25,-9,33,-66,0,0,0,0,0
1565888671312.5,-13,32,-66,0,0,0,0,0
1565888671343.75,-15,30,-64,0,0,0,0,0
1565888671375,-19,31,-59,0,0,0,0,0
1565888671406.25,-17,35,-58,0,0,0,0,0
1565888671437.5,-11,37,-56,0,0,0,0,0
1565888671468.75,-12,38,-50,0,0,0,0,0
1565888671500,-11,42,-46,0,0,0,0,0
1565888671531.25,-11,45,-40,0,0,0,0,0
1565888671562.5,-10,46,-37,0,0,0,0,0
1565888671593.75,-9,49,-36,0,0,0,0,0
1565888671625,-8,50,-33,0,0,0,0,0
1565888671656.25,1,56,-35,0,0,0,0,0
1565888671687.5,-7,54,-32,0,0,0,0,0
1565888671718.75,-14,44,-23,0,0,0,0,0
1565888671750,-19,40,-23,0,0,0,0,0
1565888671781.25,-26,38,-23,0,0,0,0,0
1565888671812.5,-31,39,-23,0,0,0,0,0
1565888671843.75,-33,39,-31,0,0,0,0,0
1565888671875,-30,42,-34,0,0,0,0,0
1565888671906.25,-28,42,-33,0,0,0,0,0
1565888671937.5,-31,39,-44,0,0,0,0,0
1565888671968.75,-48,37,-54,0,0,0,0,0
1565888672000,-32,38,-50,0,0,0,0,0
1565888672031.25,-31,36,-50,0,0,0,0,0
1565888672062.5,-40,24,-55,0,0,0,0,0
1565888672093.75,-39,20,-54,0,0,0,0,0
1565888672125,-24,2,-49,0,0,0,0,0
1565888672156.25,-20,-1,-50,0,0,0,0,0
1565888672187.5,-14,-1,-51,0,0,0,0,0
1565888672218.75,-5,-3,-42,0,0,0,0,0
1565888672250,18,5,-44,0,0,0,0,0
1565888672281.25,39,14,-36,0,0,0,0,0
1565888672312.5,49,13,-31,0,0,0,0,0
1565888672343.75,101,11,-42,0,0,0,0,0
1565888672375,107,4,-20,0,0,0,0,0
1565888672406.25,127,10,52,0,0,0,0,0
1565888672437.5,127,-16,63,0,0,0,0,0
1565888672468.75,38,-28,57,0,0,0,0,0
1565888672500,4,-18,32,0,0,0,0,0
1565888672531.25,26,2,20,0,0,0,0,0
1565888672562.5,12,12,27,0,0,0,0,0
1565888672593.75,13,7,44,0,0,0,0,0
1565888672625,15,1,48,0,0,0,0,0
1565888672656.25,21,2,44,0,0,0,0,0
1565888672687.5,23,-3,53,0,0,0,0,0
1565888672718.75,19,-4,53,0,0,0,0,0
1565888672750,11,-1,47,0,0,0,0,0
1565888672781.25,19,4,37,0,0,0,0,0
1565888672812.5,72,23,26,0,0,0,0,0
1565888672843.75,90,26,27,0,0,0,0,0
1565888672875,105,8,43,0,0,0,0,0
1565888672906.25,101,3,52,0,0,0,0,0
1565888672937.5,72,3,39,0,0,0,0,0
1565888672968.75,46,4,28,0,0,0,0,0
1565888673000,74,25,10,0,0,0,0,0
1565888673031.25,78,15,21,0,0,0,0,0
1565888673062.5,89,12,31,0,0,0,0,0
1565888673093.75,69,26,23,0,0,0,0,0
1565888673125,71,27,15,0,0,0,0,0
1565888673156.25,47,39,9,0,0,0,0,0
1565888673187.5,49,44,13,0,0,0,0,0
1565888673218.75,69,54,3,0,0,0,0,0
1565888673250,59,55,-15,0,0,0,0,0
1565888673281.25,44,53,-8,0,0,0,0,0
1565888673312.5,45,52,-8,0,0,0,0,0
1565888673343.75,35,38,10,0,0,0,0,0
1565888673375,23,29,32,0,0,0,0,0
1565888673406.25,11,42,40,0,0,0,0,0
1565888673437.5,-11,35,40,0,0,0,0,0
1565888673468.75,-58,-6,66,0,0,0,0,0
1565888673500,-65,11,37,0,0,0,0,0
1565888673531.25,-54,18,25,0,0,0,0,0
1565888673562.5,-42,21,14,0,0,0,0,0
1565888673593.75,-11,45,18,0,0,0,0,0
1565888673625,96,101,28,0,0,0,0,0
1565888673656.25,97,123,19,0,0,0,0,0
1565888673687.5,9,69,22,0,0,0,0,0
1565888673718.75,35,62,11,0,0,0,0,0
1565888673750,-23,60,-60,0,0,0,0,0
1565888673781.25,-43,52,-65,0,0,0,0,0
1565888673812.5,13,-12,32,0,0,0,0,0
1565888673843.75,45,-22,77,0,0,0,0,0
1565888673875,70,25,96,0,0,0,0,0
1565888673906.25,16,7,50,0,0,0,0,0
1565888673937.5,-10,-15,29,0,0,0,0,0
1565888673968.75,-57,-76,10,0,0,0,0,0
1565888674000,-14,-77,31,0,0,0,0,0
1565888674031.25,93,-84,54,0,0,0,0,0
1565888674062.5,127,-69,77,0,0,0,0,0
1565888674093.75,60,-97,55,0,0,0,0,0
1565888674125,12,-99,47,0,0,0,0,0
1565888674156.25,-23,-67,40,0,0,0,0,0
1565888674187.5,-22,-58,34,0,0,0,0,0
1565888674218.75,-31,-50,33,0,0,0,0,0
1565888674250,-19,-48,33,0,0,0,0,0
1565888674281.25,-31,-39,2,0,0,0,0,0
1565888674312.5,-32,-42,1,0,0,0,0,0
1565888674343.75,-30,-42,1,0,0,0,0,0
1565888674375,-37,-50,-6,0,0,0,0,0
1565888674406.25,-35,-51,-4,0,0,0,0,0
1565888674437.5,-37,-49,-4,0,0,0,0,0
1565888674468.75,-48,-46,-10,0,0,0,0,0
1565888674500,-34,-49,-16,0,0,0,0,0
1565888674531.25,-17,-58,-2,0,0,0,0,0
1565888674562.5,-46,-75,4,0,0,0,0,0
1565888674593.75,-90,-58,-49,0,0,0,0,0
1565888674625,-57,-23,-25,0,0,0,0,0
1565888674656.25,-64,-40,-16,0,0,0,0,0
1565888674687.5,-55,-30,-19,0,0,0,0,0
1565888674718.75,-56,-29,-18,0,0,0,0,0
1565888674750,-56,-29,-17,0,0,0,0,0
1565888674781.25,-51,-30,-16,0,0,0,0,0
1565888674812.5,-51,-29,-17,0,0,0,0,0
1565888674843.75,-53,-30,-17,0,0,0,0,0
1565888674875,-53,-30,-17,0,0,0,0,0
1565888674906.25,-53,-31,-18,0,0,0,0,0
1565888674937.5,-53,-33,-19,0,0,0,0,0
1565888674968.75,-53,-33,-19,0,0,0,0,0
1565888675000,-53,-32,-22,0,0,0,0,0
1565888675031.25,-55,-31,-23,0,0,0,0,0
1565888675062.5,-57,-30,-23,0,0,0,0,0
1565888675093.75,-50,-31,-21,0,0,0,0,0
1565888675125,-51,-29,-21,0,0,0,0,0
1565888675156.25,-50,-29,-21,0,0,0,0,0
1565888675187.5,-49,-28,-20,0,0,0,0,0
1565888675218.75,-49,-29,-20,0,0,0,0,0
1565888675250,-47,-31,-10,0,0,0,0,0
1565888675281.25,-48,-28,-20,0,0,0,0,0
1565888675312.5,-52,-26,-27,0,0,0,0,0
1565888675343.75,-49,-32,-20,0,0,0,0,0
1565888675375,-43,-44,-21,0,0,0,0,0
1565888675406.25,-38,-44,-26,0,0,0,0,0
1565888675437.5,-40,-43,-27,0,0,0,0,0
1565888675468.75,-41,-41,-27,0,0,0,0,0
1565888675500,-49,-37,-32,0,0,0,0,0
1565888675531.25,-44,-37,-27,0,0,0,0,0
1565888675562.5,-43,-37,-28,0,0,0,0,0
1565888675593.75,-43,-36,-27,0,0,0,0,0
1565888675625,-44,-36,-28,0,0,0,0,0
1565888675656.25,-44,-35,-25,0,0,0,0,0
1565888675687.5,-44,-36,-25,0,0,0,0,0
1565888675718.75,-46,-35,-27,0,0,0,0,0
1565888675750,-48,-36,-27,0,0,0,0,0
1565888675781.25,-47,-36,-28,0,0,0,0,0
1565888675812.5,-49,-33,-27,0,0,0,0,0
1565888675843.75,-47,-34,-25,0,0,0,0,0
1565888675875,-46,-34,-24,0,0,0,0,0
1565888675906.25,-48,-33,-25,0,0,0,0,0
1565888675937.5,-47,-33,-23,0,0,0,0,0
1565888675968.75,-49,-32,-24,0,0,0,0,0
1565888676000,-50,-33,-25,0,0,0,0,0
1565888676031.25,-48,-34,-24,0,0,0,0,0
1565888676062.5,-46,-34,-23,0,0,0,0,0
1565888676093.75,-48,-34,-25,0,0,0,0,0
1565888676125,-48,-34,-25,0,0,0,0,0
1565888676156.25,-48,-34,-24,0,0,0,0,0
1565888676187.5,-48,-32,-24,0,0,0,0,0
1565888676218.75,-48,-31,-24,0,0,0,0,0
1565888676250,-47,-31,-23,0,0,0,0,0
1565888676281.25,-47,-31,-23,0,0,0,0,0
1565888676312.5,-49,-33,-23,0,0,0,0,0
1565888676343.75,-48,-31,-24,0,0,0,0,0
1565888676375,-47,-32,-24,0,0,0,0,0
1565888676406.25,-46,-38,-25,0,0,0,0,0
1565888676437.5,-47,-36,-24,0,0,0,0,0
1565888676468.75,-48,-35,-25,0,0,0,0,0
1565888676500,-47,-35,-26,0,0,0,0,0
1565888676531.25,-48,-34,-24,0,0,0,0,0
1565888676562.5,-49,-34,-25,0,0,0,0,0
1565888676593.75,-48,-32,-26,0,0,0,0,0
1565888676625,-48,-31,-26,0,0,0,0,0
1565888676656.25,-47,-32,-26,0,0,0,0,0
1565888676687.5,-47,-32,-26,0,0,0,0,0
1565888676718.75,-46,-32,-27,0,0,0,0,0
1565888676750,-47,-34,-28,0,0,0,0,0
1565888676781.25,-48,-35,-28,0,0,0,0,0
1565888676812.5,-48,-34,-27,0,0,0,0,0
1565888676843.75,-47,-34,-27,0,0,0,0,0
1565888676875,-48,-33,-27,0,0,0,0,0
1565888676906.25,-47,-33,-28,0,0,0,0,0
1565888676937.5,-47,-32,-27,0,0,0,0,0
1565888676968.75,-47,-33,-27,0,0,0,0,0
1565888677000,-46,-33,-27,0,0,0,0,0
1565888677031.25,-46,-32,-27,0,0,0,0,0
1565888677062.5,-45,-31,-29,0,0,0,0,0
1565888677093.75,-46,-31,-29,0,0,0,0,0
1565888677125,-47,-32,-29,0,0,0,0,0
1565888677156.25,-46,-33,-29,0,0,0,0,0
1565888677187.5,-46,-32,-29,0,0,0,0,0
1565888677218.75,-46,-32,-29,0,0,0,0,0
1565888677250,-45,-32,-29,0,0,0,0,0
1565888677281.25,-46,-32,-29,0,0,0,0,0
1565888677312.5,-46,-32,-29,0,0,0,0,0
1565888677343.75,-46,-33,-29,0,0,0,0,0
1565888677375,-46,-32,-29,0,0,0,0,0
1565888677406.25,-46,-32,-29,0,0,0,0,0
1565888677437.5,-46,-32,-29,0,0,0,0,0
1565888677468.75,-46,-32,-29,0,0,0,0,0
1565888677500,-46,-32,-29,0,0,0,0,0
1565888677531.25,-46,-33,-29,0,0,0,0,0
1565888677562.5,-46,-33,-29,0,0,0,0,0
1565888677593.75,-46,-32,-28,0,0,0,0,0
1565888677625,-46,-32,-29,0,0,0,0,0
1565888677656.25,-46,-33,-29,0,0,0,0,0
1565888677687.5,-46,-33,-29,0,0,0,0,0
1565888677718.75,-46,-32,-28,0,0,0,0,0
1565888677750,-46,-33,-29,0,0,0,0,0
1565888677781.25,-46,-32,-29,0,0,0,0,0
1565888677812.5,-46,-32,-29,0,0,0,0,0
1565888677843.75,-46,-32,-29,0,0,0,0,0
1565888677875,-46,-33,-28,0,0,0,0,0
1565888677906.25,-46,-33,-29,0,0,0,0,0
1565888677937.5,-46,-32,-28,0,0,0,0,0
1565888677968.75,-46,-33,-28,0,0,0,0,0
1565888678000,-46,-33,-28,0,0,0,0,0
1565888678031.25,-46,-33,-28,0,0,0,0,0
1565888678062.5,-46,-33,-28,0,0,0,0,0
1565888678093.75,-46,-32,-29,0,0,0,0,0
1565888678125,-46,-33,-28,0,0,0,0,0
1565888678156.25,-46,-32,-29,0,0,0,0,0
1565888678187.5,-46,-32,-28,0,0,0,0,0
1565888678218.75,-47,-32,-29,0,0,0,0,0
1565888678250,-46,-32,-28,0,0,0,0,0
1565888678281.25,-46,-32,-28,0,0,0,0,0
1565888678312.5,-46,-32,-28,0,0,0,0,0
1565888678343.75,-46,-32,-29,0,0,0,0,0
1565888678375,-46,-32,-28,0,0,0,0,0
1565888678406.25,-46,-32,-28,0,0,0,0,0
1565888678437.5,-47,-32,-29,0,0,0,0,0
1565888678468.75,-47,-32,-28,0,0,0,0,0
1565888678500,-47,-32,-29,0,0,0,0,0
1565888678531.25,-47,-32,-28,0,0,0,0,0
1565888678562.5,-47,-32,-29,0,0,0,0,0
1565888678593.75,-47,-32,-29,0,0,0,0,0
1565888678625,-47,-32,-29,0,0,0,0,0
1565888678656.25,-47,-32,-29,0,0,0,0,0
1565888678687.5,-47,-32,-29,0,0,0,0,0
1565888678718.75,-47,-32,-29,0,0,0,0,0
1565888678750,-46,-32,-29,0,0,0,0,0
1565888678781.25,-46,-33,-28,0,0,0,0,0
1565888678812.5,-47,-32,-29,0,0,0,0,0
1565888678843.75,-47,-33,-29,0,0,0,0,0
1565888678875,-46,-33,-29,0,0,0,0,0
1565888678906.25,-46,-34,-29,0,0,0,0,0
1565888678937.5,-46,-34,-29,0,0,0,0,0
1565888678968.75,-45,-34,-29,0,0,0,0,0
1565888679000,-46,-34,-29,0,0,0,0,0
1565888679031.25,-46,-35,-29,0,0,0,0,0
1565888679062.5,-46,-34,-29,0,0,0,0,0
1565888679093.75,-46,-35,-28,0,0,0,0,0
1565888679125,-46,-36,-28,0,0,0,0,0
1565888679156.25,-46,-36,-27,0,0,0,0,0
1565888679187.5,-47,-38,-26,0,0,0,0,0
1565888679218.75,-46,-38,-25,0,0,0,0,0
1565888679250,-46,-39,-24,0,0,0,0,0
1565888679281.25,-44,-39,-23,0,0,0,0,0
1565888679312.5,-44,-40,-22,0,0,0,0,0
1565888679343.75,-45,-40,-23,0,0,0,0,0
1565888679375,-44,-41,-21,0,0,0,0,0
1565888679406.25,-43,-41,-21,0,0,0,0,0
1565888679437.5,-46,-43,-21,0,0,0,0,0
1565888679468.75,-50,-44,-21,0,0,0,0,0
1565888679500,-52,-45,-20,0,0,0,0,0
1565888679531.25,-52,-45,-18,0,0,0,0,0
1565888679562.5,-47,-46,-13,0,0,0,0,0
1565888679593.75,-44,-46,-8,0,0,0,0,0
1565888679625,-44,-46,-5,0,0,0,0,0
1565888679656.25,-43,-47,6,0,0,0,0,0
1565888679687.5,-40,-49,11,0,0,0,0,0
1565888679718.75,-36,-51,18,0,0,0,0,0
1565888679750,-36,-51,18,0,0,0,0,0
1565888679781.25,-30,-55,17,0,0,0,0,0
1565888679812.5,-26,-55,18,0,0,0,0,0
1565888679843.75,-17,-58,22,0,0,0,0,0
1565888679875,-18,-60,24,0,0,0,0,0
1565888679906.25,-17,-59,26,0,0,0,0,0
1565888679937.5,-14,-58,28,0,0,0,0,0
1565888679968.75,-10,-59,32,0,0,0,0,0
1565888680000,-9,-55,34,0,0,0,0,0
1565888680031.25,-7,-53,33,0,0,0,0,0
1565888680062.5,-6,-51,34,0,0,0,0,0
1565888680093.75,-6,-49,36,0,0,0,0,0
1565888680125,-2,-49,35,0,0,0,0,0
1565888680156.25,1,-43,38,0,0,0,0,0
1565888680187.5,-6,-45,41,0,0,0,0,0
1565888680218.75,-9,-43,44,0,0,0,0,0
1565888680250,-5,-39,46,0,0,0,0,0
1565888680281.25,-5,-37,46,0,0,0,0,0
1565888680312.5,-3,-33,45,0,0,0,0,0
1565888680343.75,-1,-31,46,0,0,0,0,0
1565888680375,-5,-29,49,0,0,0,0,0
1565888680406.25,-4,-25,47,0,0,0,0,0
1565888680437.5,-1,-26,43,0,0,0,0,0
1565888680468.75,-11,-22,44,0,0,0,0,0
1565888680500,-16,-15,43,0,0,0,0,0
1565888680531.25,-14,-4,41,0,0,0,0,0
1565888680562.5,-20,6,40,0,0,0,0,0
1565888680593.75,-16,16,42,0,0,0,0,0
1565888680625,-16,18,47,0,0,0,0,0
1565888680656.25,1,21,58,0,0,0,0,0
1565888680687.5,0,27,55,0,0,0,0,0
1565888680718.75,-7,36,44,0,0,0,0,0
1565888680750,-25,40,43,0,0,0,0,0
1565888680781.25,-34,83,57,0,0,0,0,0
1565888680812.5,-49,37,92,0,0,0,0,0
1565888680843.75,-51,21,87,0,0,0,0,0
1565888680875,-21,9,59,0,0,0,0,0
1565888680906.25,-27,7,43,0,0,0,0,0
1565888680937.5,-42,7,19,0,0,0,0,0
1565888680968.75,-41,8,13,0,0,0,0,0
1565888681000,-78,3,15,0,0,0,0,0
1565888681031.25,-87,4,29,0,0,0,0,0
1565888681062.5,-80,1,39,0,0,0,0,0
1565888681093.75,-71,1,38,0,0,0,0,0
1565888681125,-61,5,37,0,0,0,0,0
1565888681156.25,-53,7,34,0,0,0,0,0
1565888681187.5,-54,5,27,0,0,0,0,0
1565888681218.75,-68,1,28,0,0,0,0,0
1565888681250,-67,1,31,0,0,0,0,0
1565888681281.25,-58,6,27,0,0,0,0,0
1565888681312.5,-56,7,21,0,0,0,0,0
1565888681343.75,-46,7,23,0,0,0,0,0
1565888681375,-44,6,27,0,0,0,0,0
1565888681406.25,-44,5,33,0,0,0,0,0
1565888681437.5,-52,3,38,0,0,0,0,0
1565888681468.75,-50,6,44,0,0,0,0,0
1565888681500,-51,5,42,0,0,0,0,0
1565888681531.25,-47,1,32,0,0,0,0,0
1565888681562.5,-51,-1,36,0,0,0,0,0
1565888681593.75,-55,-2,34,0,0,0,0,0
1565888681625,-57,-1,31,0,0,0,0,0
1565888681656.25,-53,-1,30,0,0,0,0,0
1565888681687.5,-48,-1,34,0,0,0,0,0
1565888681718.75,-48,0,32,0,0,0,0,0
1565888681750,-52,-1,26,0,0,0,0,0
1565888681781.25,-57,1,26,0,0,0,0,0
1565888681812.5,-53,3,30,0,0,0,0,0
1565888681843.75,-56,0,26,0,0,0,0,0
1565888681875,-61,-1,18,0,0,0,0,0
1565888681906.25,-59,-2,15,0,0,0,0,0
1565888681937.5,-63,-6,16,0,0,0,0,0
1565888681968.75,-66,-7,13,0,0,0,0,0
1565888682000,-68,-6,4,0,0,0,0,0
1565888682031.25,-67,-6,5,0,0,0,0,0
1565888682062.5,-67,-5,8,0,0,0,0,0
1565888682093.75,-65,-2,13,0,0,0,0,0
1565888682125,-64,-1,16,0,0,0,0,0
1565888682156.25,-63,-2,20,0,0,0,0,0
1565888682187.5,-64,-3,21,0,0,0,0,0
1565888682218.75,-62,-3,19,0,0,0,0,0
1565888682250,-61,-3,17,0,0,0,0,0
1565888682281.25,-62,-2,14,0,0,0,0,0
1565888682312.5,-63,-2,14,0,0,0,0,0
1565888682343.75,-60,-3,16,0,0,0,0,0
1565888682375,-58,-3,17,0,0,0,0,0
1565888682406.25,-60,-3,18,0,0,0,0,0
1565888682437.5,-61,-3,18,0,0,0,0,0
1565888682468.75,-60,-3,19,0,0,0,0,0
1565888682500,-60,-3,19,0,0,0,0,0
1565888682531.25,-60,-2,19,0,0,0,0,0
1565888682562.5,-61,-3,18,0,0,0,0,0
1565888682593.75,-60,-2,18,0,0,0,0,0
1565888682625,-62,-2,17,0,0,0,0,0
1565888682656.25,-61,-2,18,0,0,0,0,0
1565888682687.5,-62,-2,18,0,0,0,0,0
1565888682718.75,-62,-2,17,0,0,0,0,0
1565888682750,-60,-2,18,0,0,0,0,0
1565888682781.25,-62,-3,17,0,0,0,0,0
1565888682812.5,-61,-3,18,0,0,0,0,0
1565888682843.75,-61,-2,17,0,0,0,0,0
1565888682875,-61,-2,18,0,0,0,0,0
1565888682906.25,-60,-3,18,0,0,0,0,0
1565888682937.5,-61,-3,18,0,0,0,0,0
1565888682968.75,-60,-3,19,0,0,0,0,0
1565888683000,-59,-3,20,0,0,0,0,0
1565888683031.25,-60,-3,20,0,0,0,0,0
1565888683062.5,-60,-2,19,0,0,0,0,0
1565888683093.75,-60,-3,20,0,0,0,0,0
1565888683125,-60,-2,19,0,0,0,0,0
1565888683156.25,-60,-3,20,0,0,0,0,0
1565888683187.5,-60,-3,20,0,0,0,0,0
1565888683218.75,-60,-3,20,0,0,0,0,0
1565888683250,-60,-3,20,0,0,0,0,0
1565888683281.25,-60,-3,20,0,0,0,0,0
1565888683312.5,-60,-3,20,0,0,0,0,0
1565888683343.75,-60,-3,20,0,0,0,0,0
1565888683375,-60,-3,20,0,0,0,0,0
1565888683406.25,-60,-3,20,0,0,0,0,0
1565888683437.5,-60,-3,20,0,0,0,0,0
1565888683468.75,-60,-3,20,0,0,0,0,0
1565888683500,-59,-3,21,0,0,0,0,0
1565888683531.25,-60,-3,20,0,0,0,0,0
1565888683562.5,-60,-3,20,0,0,0,0,0
1565888683593.75,-60,-3,20,0,0,0,0,0
1565888683625,-60,-2,20,0,0,0,0,0
1565888683656.25,-60,-2,20,0,0,0,0,0
1565888683687.5,-60,-3,21,0,0,0,0,0
1565888683718.75,-60,-3,20,0,0,0,0,0
1565888683750,-60,-3,20,0,0,0,0,0
1565888683781.25,-60,-2,20,0,0,0,0,0
1565888683812.5,-60,-2,20,0,0,0,0,0
1565888683843.75,-59,-2,21,0,0,0,0,0
1565888683875,-59,-3,21,0,0,0,0,0
1565888683906.25,-60,-2,21,0,0,0,0,0
1565888683937.5,-60,-2,21,0,0,0,0,0
1565888683968.75,-59,-3,21,0,0,0,0,0
1565888684000,-59,-3,21,0,0,0,0,0
1565888684031.25,-60,-3,21,0,0,0,0,0
1565888684062.5,-60,-2,21,0,0,0,0,0
1565888684093.75,-60,-3,22,0,0,0,0,0
1565888684125,-58,-3,22,0,0,0,0,0
1565888684156.25,-58,-3,22,0,0,0,0,0
1565888684187.5,-59,-3,22,0,0,0,0,0
1565888684218.75,-60,-3,23,0,0,0,0,0
1565888684250,-59,-3,23,0,0,0,0,0
1565888684281.25,-59,-3,23,0,0,0,0,0
1565888684312.5,-58,-3,23,0,0,0,0,0
1565888684343.75,-59,-3,23,0,0,0,0,0
1565888684375,-59,-3,23,0,0,0,0,0
1565888684406.25,-59,-3,23,0,0,0,0,0
1565888684437.5,-59,-3,23,0,0,0,0,0
1565888684468.75,-59,-2,23,0,0,0,0,0
1565888684500,-59,-2,23,0,0,0,0,0
1565888684531.25,-59,-2,24,0,0,0,0,0
1565888684562.5,-59,-3,24,0,0,0,0,0
1565888684593.75,-59,-3,24,0,0,0,0,0
1565888684625,-58,-2,24,0,0,0,0,0
1565888684656.25,-58,-3,25,0,0,0,0,0
1565888684687.5,-58,-2,25,0,0,0,0,0
1565888684718.75,-58,-2,25,0,0,0,0,0
1565888684750,-57,-2,26,0,0,0,0,0
1565888684781.25,-57,-3,26,0,0,0,0,0
1565888684812.5,-58,-3,26,0,0,0,0,0
1565888684843.75,-59,-3,25,0,0,0,0,0
1565888684875,-58,-2,26,0,0,0,0,0
1565888684906.25,-58,-2,26,0,0,0,0,0
1565888684937.5,-58,-2,25,0,0,0,0,0
1565888684968.75,-58,-2,26,0,0,0,0,0
1565888685000,-57,-2,27,0,0,0,0,0
1565888685031.25,-57,-2,28,0,0,0,0,0
1565888685062.5,-57,-2,27,0,0,0,0,0
1565888685093.75,-57,-3,27,0,0,0,0,0
1565888685125,-57,-3,28,0,0,0,0,0
1565888685156.25,-56,-3,28,0,0,0,0,0
1565888685187.5,-56,-2,29,0,0,0,0,0
1565888685218.75,-56,-2,29,0,0,0,0,0
1565888685250,-57,-3,28,0,0,0,0,0
1565888685281.25,-56,-2,29,0,0,0,0,0
1565888685312.5,-56,-3,29,0,0,0,0,0
1565888685343.75,-56,-3,30,0,0,0,0,0
1565888685375,-56,-3,30,0,0,0,0,0
1565888685406.25,-55,-3,30,0,0,0,0,0
1565888685437.5,-55,-2,30,0,0,0,0,0
1565888685468.75,-56,-2,30,0,0,0,0,0
1565888685500,-55,-2,31,0,0,0,0,0
1565888685531.25,-55,-3,31,0,0,0,0,0
1565888685562.5,-55,-3,31,0,0,0,0,0
1565888685593.75,-55,-3,31,0,0,0,0,0
1565888685625,-55,-3,31,0,0,0,0,0
1565888685656.25,-55,-3,31,0,0,0,0,0
1565888685687.5,-55,-2,31,0,0,0,0,0
1565888685718.75,-55,-2,31,0,0,0,0,0
1565888685750,-55,-3,31,0,0,0,0,0
1565888685781.25,-55,-3,31,0,0,0,0,0
1565888685812.5,-56,-3,30,0,0,0,0,0
1565888685843.75,-57,-3,29,0,0,0,0,0
1565888685875,-58,-3,28,0,0,0,0,0
1565888685906.25,-57,-3,29,0,0,0,0,0
1565888685937.5,-55,-3,31,0,0,0,0,0
1565888685968.75,-55,-3,32,0,0,0,0,0
1565888686000,-55,-2,32,0,0,0,0,0
1565888686031.25,-56,-2,31,0,0,0,0,0
1565888686062.5,-55,-2,30,0,0,0,0,0
1565888686093.75,-54,-3,31,0,0,0,0,0
1565888686125,-54,-3,31,0,0,0,0,0
1565888686156.25,-56,-3,30,0,0,0,0,0
1565888686187.5,-56,-3,30,0,0,0,0,0
1565888686218.75,-56,-3,30,0,0,0,0,0
1565888686250,-58,-1,30,0,0,0,0,0
1565888686281.25,-56,-3,30,0,0,0,0,0
1565888686312.5,-56,-3,30,0,0,0,0,0
1565888686343.75,-56,-3,30,0,0,0,0,0
1565888686375,-56,-3,30,0,0,0,0,0
1565888686406.25,-56,-3,30,0,0,0,0,0
1565888686437.5,-55,-2,30,0,0,0,0,0
1565888686468.75,-55,-2,31,0,0,0,0,0
1565888686500,-55,-2,31,0,0,0,0,0
1565888686531.25,-56,-2,31,0,0,0,0,0
1565888686562.5,-56,-2,31,0,0,0,0,0
1565888686593.75,-56,-2,31,0,0,0,0,0
1565888686625,-56,-2,31,0,0,0,0,0
1565888686656.25,-56,-2,31,0,0,0,0,0
1565888686687.5,-55,-2,31,0,0,0,0,0
1565888686718.75,-55,-2,31,0,0,0,0,0
1565888686750,-55,-2,31,0,0,0,0,0
1565888686781.25,-55,-2,32,0,0,0,0,0
1565888686812.5,-55,-2,32,0,0,0,0,0
1565888686843.75,-55,-2,32,0,0,0,0,0
1565888686875,-55,-2,32,0,0,0,0,0
1565888686906.25,-55,-1,33,0,0,0,0,0
1565888686937.5,-54,-1,33,0,0,0,0,0
1565888686968.75,-54,-1,33,0,0,0,0,0
1565888687000,-54,-1,33,0,0,0,0,0
1565888687031.25,-54,-1,34,0,0,0,0,0
1565888687062.5,-54,-1,34,0,0,0,0,0
1565888687093.75,-55,-1,33,0,0,0,0,0
1565888687125,-57,-2,34,0,0,0,0,0
1565888687156.25,-55,-1,34,1,0,0,0,0
1565888687187.5,-55,-1,34,1,0,0,0,0
1565888687218.75,-56,-2,35,1,0,0,0,0
1565888687250,-55,-1,39,1,0,0,0,0
1565888687281.25,-53,-1,40,1,0,0,0,0
1565888687312.5,-50,-1,43,1,0,0,0,0
1565888687343.75,-49,0,45,1,0,0,0,0
1565888687375,-38,1,46,1,0,0,0,0
1565888687406.25,-38,1,47,1,0,0,0,0
1565888687437.5,-41,1,49,1,0,0,0,0
1565888687468.75,-41,2,50,1,0,0,0,0
1565888687500,-39,3,52,1,0,0,0,0
1565888687531.25,-39,3,54,1,0,0,0,0
1565888687562.5,-38,3,57,1,0,0,0,0
1565888687593.75,-36,3,57,1,0,0,0,0
1565888687625,-26,5,59,1,0,0,0,0
1565888687656.25,-22,6,60,1,0,0,0,0
1565888687687.5,-17,8,61,1,0,0,0,0
1565888687718.75,-26,8,58,1,0,0,0,0
1565888687750,-30,9,57,1,0,0,0,0
1565888687781.25,-29,10,58,1,0,0,0,0
1565888687812.5,-27,12,59,1,0,0,0,0
1565888687843.75,-24,12,58,1,0,0,0,0
1565888687875,-23,13,58,1,0,0,0,0
1565888687906.25,-20,14,59,1,0,0,0,0
1565888687937.5,-22,15,60,1,0,0,0,0
1565888687968.75,-26,13,63,1,0,0,0,0
1565888688000,-4,15,63,1,0,0,0,0
1565888688031.25,6,18,61,1,0,0,0,0
1565888688062.5,13,19,60,1,0,0,0,0
1565888688093.75,21,20,54,0,0,0,0,0
1565888688125,18,26,52,0,0,0,0,0
1565888688156.25,24,22,54,0,0,0,0,0
1565888688187.5,34,29,56,0,0,0,0,0
1565888688218.75,33,30,54,0,0,0,0,0
1565888688250,14,31,50,0,0,0,0,0
1565888688281.25,11,28,49,0,0,0,0,0
1565888688312.5,13,32,52,0,0,0,0,0
1565888688343.75,-6,39,43,0,0,0,0,0
1565888688375,-29,43,28,0,0,0,0,0
1565888688406.25,-28,46,34,0,0,0,0,0
1565888688437.5,-37,52,34,0,0,0,0,0
1565888688468.75,-43,48,33,0,0,0,0,0
1565888688500,-31,37,47,0,0,0,0,0
1565888688531.25,-20,30,65,0,0,0,0,0
1565888688562.5,-22,27,68,0,0,0,0,0
1565888688593.75,-24,33,61,0,0,0,0,0
1565888688625,-24,31,56,0,0,0,0,0
1565888688656.25,-17,30,52,0,0,0,0,0
1565888688687.5,-16,26,50,0,0,0,0,0
1565888688718.75,8,13,62,0,0,0,0,0
1565888688750,26,5,71,0,0,0,0,0
1565888688781.25,21,8,64,0,0,0,0,0
1565888688812.5,13,6,58,0,0,0,0,0
1565888688843.75,19,3,47,0,0,0,0,0
1565888688875,48,0,50,0,0,0,0,0
1565888688906.25,48,3,47,0,0,0,0,0
1565888688937.5,73,4,56,0,0,0,0,0
1565888688968.75,70,8,56,0,0,0,0,0
1565888689000,36,10,33,0,0,0,0,0
1565888689031.25,34,7,32,0,0,0,0,0
1565888689062.5,41,9,34,0,0,0,0,0
1565888689093.75,49,5,38,0,0,0,0,0
1565888689125,43,8,32,0,0,0,0,0
1565888689156.25,57,8,37,0,0,0,0,0
1565888689187.5,51,5,39,0,0,0,0,0
1565888689218.75,45,5,37,0,0,0,0,0
1565888689250,59,1,46,0,0,0,0,0
1565888689281.25,82,2,15,0,0,0,0,0
1565888689312.5,93,-2,22,0,0,0,0,0
1565888689343.75,62,-1,13,0,0,0,0,0
1565888689375,56,0,10,0,0,0,0,0
1565888689406.25,47,2,10,0,0,0,0,0
1565888689437.5,53,5,6,0,0,0,0,0
1565888689468.75,59,7,4,0,0,0,0,0
1565888689500,57,7,7,0,0,0,0,0
1565888689531.25,58,12,1,0,0,0,0,0
1565888689562.5,60,13,-2,0,0,0,0,0
1565888689593.75,57,11,2,0,0,0,0,0
1565888689625,60,11,4,0,0,0,0,0
1565888689656.25,61,9,4,0,0,0,0,0
1565888689687.5,66,8,8,0,0,0,0,0
1565888689718.75,66,10,10,0,0,0,0,0
1565888689750,65,11,8,0,0,0,0,0
1565888689781.25,65,12,10,0,0,0,0,0
1565888689812.5,69,14,8,0,0,0,0,0
1565888689843.75,63,15,10,0,0,0,0,0
1565888689875,63,13,4,0,0,0,0,0
1565888689906.25,59,13,1,0,0,0,0,0
1565888689937.5,63,18,-7,0,0,0,0,0
1565888689968.75,60,17,-11,0,0,0,0,0
1565888690000,60,19,-9,0,0,0,0,0
1565888690031.25,58,22,-8,0,0,0,0,0
1565888690062.5,56,25,-6,0,0,0,0,0
1565888690093.75,52,27,-6,0,0,0,0,0
1565888690125,50,34,-6,0,0,0,0,0
1565888690156.25,47,37,-10,0,0,0,0,0
1565888690187.5,52,38,-8,0,0,0,0,0
1565888690218.75,55,40,-8,0,0,0,0,0
1565888690250,61,44,-11,0,0,0,0,0
1565888690281.25,62,46,-11,0,0,0,0,0
1565888690312.5,62,51,-13,0,0,0,0,0
1565888690343.75,35,52,-15,0,0,0,0,0
1565888690375,18,53,-14,0,0,0,0,0
1565888690406.25,-22,53,-4,0,0,0,0,0
1565888690437.5,-34,56,2,0,0,0,0,0
1565888690468.75,-29,49,11,0,0,0,0,0
1565888690500,-24,32,-4,0,0,0,0,0
1565888690531.25,-31,24,19,0,0,0,0,0
1565888690562.5,9,47,45,0,0,0,0,0
1565888690593.75,13,52,43,0,0,0,0,0
1565888690625,9,54,43,0,0,0,0,0
1565888690656.25,9,56,40,0,0,0,0,0
1565888690687.5,7,60,37,0,0,0,0,0
1565888690718.75,-1,52,36,0,0,0,0,0
1565888690750,9,55,36,0,0,0,0,0
1565888690781.25,16,58,34,0,0,0,0,0
1565888690812.5,17,56,31,0,0,0,0,0
1565888690843.75,15,57,26,0,0,0,0,0
1565888690875,20,58,23,0,0,0,0,0
1565888690906.25,21,54,19,0,0,0,0,0
1565888690937.5,23,57,15,0,0,0,0,0
1565888690968.75,18,57,9,0,0,0,0,0
1565888691000,21,57,10,0,0,0,0,0
1565888691031.25,28,59,8,0,0,0,0,0
1565888691062.5,26,61,6,0,0,0,0,0
1565888691093.75,16,57,2,0,0,0,0,0
1565888691125,16,55,3,0,0,0,0,0
1565888691156.25,21,60,8,0,0,0,0,0
1565888691187.5,20,60,8,0,0,0,0,0
1565888691218.75,17,55,8,0,0,0,0,0
1565888691250,20,56,8,0,0,0,0,0
1565888691281.25,17,54,11,0,0,0,0,0
1565888691312.5,16,55,16,0,0,0,0,0
1565888691343.75,22,54,20,0,0,0,0,0
1565888691375,25,57,21,0,0,0,0,0
1565888691406.25,25,56,23,0,0,0,0,0
1565888691437.5,14,54,32,0,0,0,0,0
1565888691468.75,17,60,33,0,0,0,0,0
1565888691500,15,56,30,0,0,0,0,0
1565888691531.25,13,57,31,0,0,0,0,0
1565888691562.5,14,59,31,0,0,0,0,0
1565888691593.75,14,59,31,0,0,0,0,0
1565888691625,6,59,29,0,0,0,0,0
1565888691656.25,3,60,28,0,0,0,0,0
1565888691687.5,7,61,27,0,0,0,0,0
1565888691718.75,4,59,24,0,0,0,0,0
1565888691750,0,59,21,0,0,0,0,0
1565888691781.25,0,58,20,0,0,0,0,0
1565888691812.5,-2,56,20,0,0,0,0,0
1565888691843.75,-3,55,13,0,0,0,0,0
1565888691875,-2,53,10,0,0,0,0,0
1565888691906.25,-16,46,9,0,0,0,0,0
1565888691937.5,-12,48,9,0,0,0,0,0
1565888691968.75,-1,45,9,0,0,0,0,0
1565888692000,6,45,16,0,0,0,0,0
1565888692031.25,-1,43,16,0,0,0,0,0
1565888692062.5,-7,38,17,0,0,0,0,0
1565888692093.75,-13,21,26,0,0,0,0,0
1565888692125,30,20,48,0,0,0,0,0
1565888692156.25,34,18,61,0,0,0,0,0
1565888692187.5,40,26,66,0,0,0,0,0
1565888692218.75,44,30,69,0,0,0,0,0
1565888692250,49,47,75,0,0,0,0,0
1565888692281.25,47,70,80,0,0,0,0,0
1565888692312.5,11,97,91,0,0,0,0,0
1565888692343.75,37,9,94,0,0,0,0,0
1565888692375,113,12,98,0,0,0,0,0
1565888692406.25,92,11,77,0,0,0,0,0
1565888692437.5,34,6,36,0,0,0,0,0
1565888692468.75,16,9,25,0,0,0,0,0
1565888692500,-4,24,18,0,0,0,0,0
1565888692531.25,-6,43,25,0,0,0,0,0
1565888692562.5,5,53,39,0,0,0,0,0
1565888692593.75,4,40,56,0,0,0,0,0
1565888692625,-3,32,64,0,0,0,0,0
1565888692656.25,-7,18,66,0,0,0,0,0
1565888692687.5,1,16,69,0,0,0,0,0
1565888692718.75,3,17,64,0,0,0,0,0
1565888692750,1,20,63,0,0,0,0,0
1565888692781.25,2,26,60,0,0,0,0,0
1565888692812.5,1,27,59,0,0,0,0,0
1565888692843.75,-2,29,56,0,0,0,0,0
1565888692875,-1,30,55,0,0,0,0,0
1565888692906.25,0,31,55,0,0,0,0,0
1565888692937.5,3,30,55,0,0,0,0,0
1565888692968.75,5,31,54,0,0,0,0,0
1565888693000,10,32,55,0,0,0,0,0
1565888693031.25,10,31,56,0,0,0,0,0
1565888693062.5,13,29,57,0,0,0,0,0
1565888693093.75,10,29,56,0,0,0,0,0
1565888693125,12,29,55,0,0,0,0,0
1565888693156.25,12,29,56,0,0,0,0,0
1565888693187.5,14,29,55,0,0,0,0,0
1565888693218.75,13,29,55,0,0,0,0,0
1565888693250,14,29,56,0,0,0,0,0
1565888693281.25,15,29,57,0,0,0,0,0
1565888693312.5,13,29,56,0,0,0,0,0
1565888693343.75,12,29,55,0,0,0,0,0
1565888693375,12,29,56,0,0,0,0,0
1565888693406.25,12,28,56,0,0,0,0,0
1565888693437.5,13,29,56,0,0,0,0,0
1565888693468.75,13,29,55,0,0,0,0,0
1565888693500,13,30,55,0,0,0,0,0
1565888693531.25,12,30,55,0,0,0,0,0
1565888693562.5,12,30,54,0,0,0,0,0
1565888693593.75,15,30,53,0,0,0,0,0
1565888693625,17,30,53,0,0,0,0,0
1565888693656.25,21,30,53,0,0,0,0,0
1565888693687.5,22,30,53,0,0,0,0,0
1565888693718.75,23,31,52,0,0,0,0,0
1565888693750,24,29,53,0,0,0,0,0
1565888693781.25,25,29,54,0,0,0,0,0
1565888693812.5,26,28,53,0,0,0,0,0
1565888693843.75,24,28,53,0,0,0,0,0
1565888693875,24,29,52,0,0,0,0,0
1565888693906.25,24,29,53,0,0,0,0,0
1565888693937.5,21,29,53,0,0,0,0,0
1565888693968.75,20,29,53,0,0,0,0,0
1565888694000,22,29,53,0,0,0,0,0
1565888694031.25,21,29,53,0,0,0,0,0
1565888694062.5,21,29,53,0,0,0,0,0
1565888694093.75,22,29,53,0,0,0,0,0
1565888694125,22,29,53,0,0,0,0,0
1565888694156.25,22,29,52,0,0,0,0,0
1565888694187.5,23,29,52,0,0,0,0,0
1565888694218.75,23,29,53,0,0,0,0,0
1565888694250,22,29,53,0,0,0,0,0
1565888694281.25,22,29,53,0,0,0,0,0
1565888694312.5,22,29,52,0,0,0,0,0
1565888694343.75,21,29,52,0,0,0,0,0
1565888694375,23,29,53,0,0,0,0,0
1565888694406.25,23,29,53,0,0,0,0,0
1565888694437.5,22,29,53,0,0,0,0,0
1565888694468.75,22,29,52,0,0,0,0,0
1565888694500,23,29,52,0,0,0,0,0
1565888694531.25,23,29,53,0,0,0,0,0
1565888694562.5,22,29,52,0,0,0,0,0
1565888694593.75,22,29,53,0,0,0,0,0
1565888694625,23,29,53,0,0,0,0,0
1565888694656.25,23,29,52,0,0,0,0,0
1565888694687.5,22,28,52,0,0,0,0,0
1565888694718.75,23,28,53,0,0,0,0,0
1565888694750,23,29,52,0,0,0,0,0
1565888694781.25,22,29,52,0,0,0,0,0
1565888694812.5,24,29,53,0,0,0,0,0
1565888694843.75,24,29,53,0,0,0,0,0
1565888694875,23,29,52,0,0,0,0,0
1565888694906.25,23,29,52,0,0,0,0,0
1565888694937.5,22,28,53,0,0,0,0,0
1565888694968.75,22,29,53,0,0,0,0,0
1565888695000,23,29,53,0,0,0,0,0
1565888695031.25,23,29,53,0,0,0,0,0
1565888695062.5,23,29,53,0,0,0,0,0
1565888695093.75,23,29,52,0,0,0,0,0
1565888695125,22,29,53,0,0,0,0,0
1565888695156.25,22,29,53,0,0,0,0,0
1565888695187.5,23,29,53,0,0,0,0,0
1565888695218.75,23,29,53,0,0,0,0,0
1565888695250,23,29,53,0,0,0,0,0
1565888695281.25,22,29,52,0,0,0,0,0
1565888695312.5,21,29,53,0,0,0,0,0
1565888695343.75,22,29,52,0,0,0,0,0
1565888695375,22,29,52,0,0,0,0,0
1565888695406.25,23,29,53,0,0,0,0,0
1565888695437.5,23,28,53,0,0,0,0,0
1565888695468.75,22,28,53,0,0,0,0,0
1565888695500,22,28,54,0,0,0,0,0
1565888695531.25,22,29,53,0,0,0,0,0
1565888695562.5,23,29,53,0,0,0,0,0
1565888695593.75,23,29,52,0,0,0,0,0
1565888695625,24,30,52,0,0,0,0,0
1565888695656.25,24,29,54,0,0,0,0,0
1565888695687.5,22,29,54,0,0,0,0,0
1565888695718.75,23,30,53,0,0,0,0,0
1565888695750,23,30,55,0,0,0,0,0
1565888695781.25,21,31,51,0,0,0,0,0
1565888695812.5,23,32,50,0,0,0,0,0
1565888695843.75,24,33,48,0,0,0,0,0
1565888695875,23,34,47,0,0,0,0,0
1565888695906.25,25,35,44,0,0,0,0,0
1565888695937.5,27,36,44,0,0,0,0,0
1565888695968.75,27,38,40,0,0,0,0,0
1565888696000,30,38,40,0,0,0,0,0
1565888696031.25,32,40,35,0,0,0,0,0
1565888696062.5,31,41,30,0,0,0,0,0
1565888696093.75,35,43,26,0,0,0,0,0
1565888696125,37,43,25,0,0,0,0,0
1565888696156.25,40,43,17,0,0,0,0,0
1565888696187.5,41,49,14,0,0,0,0,0
1565888696218.75,44,49,14,0,0,0,0,0
1565888696250,47,46,14,0,0,0,0,0
1565888696281.25,45,43,16,0,0,0,0,0
1565888696312.5,46,41,12,0,0,0,0,0
1565888696343.75,40,42,8,0,0,0,0,0
1565888696375,44,41,12,0,0,0,0,0
1565888696406.25,52,41,20,0,0,0,0,0
1565888696437.5,51,40,25,0,0,0,0,0
1565888696468.75,48,41,22,0,0,0,0,0
1565888696500,45,42,20,0,0,0,0,0
1565888696531.25,45,41,20,0,0,0,0,0
1565888696562.5,46,41,22,0,0,0,0,0
1565888696593.75,45,39,31,0,0,0,0,0
1565888696625,44,40,33,0,0,0,0,0
1565888696656.25,43,42,27,0,0,0,0,0
1565888696687.5,46,42,23,0,0,0,0,0
1565888696718.75,45,38,21,0,0,0,0,0
1565888696750,45,36,23,0,0,0,0,0
1565888696781.25,50,34,29,0,0,0,0,0
1565888696812.5,49,30,33,0,0,0,0,0
1565888696843.75,46,22,43,0,0,0,0,0
1565888696875,44,19,49,0,0,0,0,0
1565888696906.25,39,16,54,0,0,0,0,0
1565888696937.5,38,16,54,0,0,0,0,0
1565888696968.75,32,21,51,0,0,0,0,0
1565888697000,25,25,49,0,0,0,0,0
1565888697031.25,24,28,49,0,0,0,0,0
1565888697062.5,20,31,49,0,0,0,0,0
1565888697093.75,18,31,49,0,0,0,0,0
1565888697125,17,29,51,0,0,0,0,0
1565888697156.25,17,28,51,0,0,0,0,0
1565888697187.5,18,26,53,0,0,0,0,0
1565888697218.75,21,27,53,0,0,0,0,0
1565888697250,24,27,54,0,0,0,0,0
1565888697281.25,26,28,53,0,0,0,0,0
1565888697312.5,27,28,51,0,0,0,0,0
1565888697343.75,27,28,50,0,0,0,0,0
1565888697375,28,28,50,0,0,0,0,0
1565888697406.25,28,28,50,0,0,0,0,0
1565888697437.5,28,28,50,0,0,0,0,0
1565888697468.75,28,27,52,0,0,0,0,0
1565888697500,28,26,52,0,0,0,0,0
1565888697531.25,26,26,51,0,0,0,0,0
1565888697562.5,26,27,51,0,0,0,0,0
1565888697593.75,26,28,51,0,0,0,0,0
1565888697625,27,29,51,0,0,0,0,0
1565888697656.25,28,29,50,0,0,0,0,0
1565888697687.5,27,29,50,0,0,0,0,0
1565888697718.75,29,29,49,0,0,0,0,0
1565888697750,30,29,50,0,0,0,0,0
1565888697781.25,30,29,51,0,0,0,0,0
1565888697812.5,28,28,50,0,0,0,0,0
1565888697843.75,27,28,50,0,0,0,0,0
1565888697875,27,28,50,0,0,0,0,0
1565888697906.25,27,29,50,0,0,0,0,0
1565888697937.5,27,29,50,0,0,0,0,0
1565888697968.75,27,29,50,0,0,0,0,0
1565888698000,28,28,50,0,0,0,0,0
1565888698031.25,28,28,50,0,0,0,0,0
1565888698062.5,29,28,50,0,0,0,0,0
1565888698093.75,29,28,50,0,0,0,0,0
1565888698125,28,28,50,0,0,0,0,0
1565888698156.25,28,28,50,0,0,0,0,0
1565888698187.5,28,28,51,0,0,0,0,0
1565888698218.75,28,27,51,0,0,0,0,0
1565888698250,28,28,51,0,0,0,0,0
1565888698281.25,28,28,50,0,0,0,0,0
1565888698312.5,27,28,49,0,0,0,0,0
1565888698343.75,28,29,50,0,0,0,0,0
1565888698375,28,30,50,0,0,0,0,0
1565888698406.25,29,29,50,0,0,0,0,0
1565888698437.5,29,29,50,0,0,0,0,0
1565888698468.75,28,28,51,0,0,0,0,0
1565888698500,27,28,50,0,0,0,0,0
1565888698531.25,27,28,50,0,0,0,0,0
1565888698562.5,26,28,50,0,0,0,0,0
1565888698593.75,26,28,51,0,0,0,0,0
1565888698625,28,28,51,0,0,0,0,0
1565888698656.25,28,28,51,0,0,0,0,0
1565888698687.5,28,27,51,0,0,0,0,0
1565888698718.75,28,27,51,0,0,0,0,0
1565888698750,27,27,51,0,0,0,0,0
1565888698781.25,26,27,51,0,0,0,0,0
1565888698812.5,25,27,51,0,0,0,0,0
1565888698843.75,25,27,51,0,0,0,0,0
1565888698875,25,28,51,0,0,0,0,0
1565888698906.25,26,28,51,0,0,0,0,0
1565888698937.5,27,28,51,0,0,0,0,0
1565888698968.75,27,28,51,0,0,0,0,0
1565888699000,27,28,51,0,0,0,0,0
1565888699031.25,27,28,51,0,0,0,0,0
1565888699062.5,27,28,51,0,0,0,0,0
1565888699093.75,26,28,51,0,0,0,0,0
1565888699125,27,28,51,0,0,0,0,0
1565888699156.25,27,28,51,0,0,0,0,0
1565888699187.5,27,28,51,0,0,0,0,0
1565888699218.75,27,28,51,0,0,0,0,0
1565888699250,27,28,51,0,0,0,0,0
1565888699281.25,27,28,51,0,0,0,0,0
1565888699312.5,27,28,51,0,0,0,0,0
1565888699343.75,26,28,51,0,0,0,0,0
1565888699375,26,28,51,0,0,0,0,0
1565888699406.25,26,28,51,0,0,0,0,0
1565888699437.5,27,28,51,0,0,0,0,0
1565888699468.75,27,28,51,0,0,0,0,0
1565888699500,26,28,51,0,0,0,0,0
1565888699531.25,26,28,51,0,0,0,0,0
1565888699562.5,26,28,51,0,0,0,0,0
1565888699593.75,26,28,51,0,0,0,0,0
1565888699625,26,28,51,0,0,0,0,0
1565888699656.25,27,28,51,0,0,0,0,0
1565888699687.5,26,28,51,0,0,0,0,0
1565888699718.75,26,28,51,0,0,0,0,0
1565888699750,27,28,51,0,0,0,0,0
1565888699781.25,27,28,51,0,0,0,0,0
1565888699812.5,27,28,51,0,0,0,0,0
1565888699843.75,27,28,51,0,0,0,0,0
1565888699875,27,28,51,0,0,0,0,0
1565888699906.25,26,28,51,0,0,0,0,0
1565888699937.5,26,28,51,0,0,0,0,0
1565888699968.75,26,28,51,0,0,0,0,0
1565888700000,26,28,51,0,0,0,0,0
1565888700031.25,26,28,51,0,0,0,0,0
1565888700062.5,27,28,51,0,0,0,0,0
1565888700093.75,27,28,51,0,0,0,0,0
1565888700125,27,28,51,0,0,0,0,0
1565888700156.25,27,28,51,0,0,0,0,0
1565888700187.5,27,28,51,0,0,0,0,0
1565888700218.75,27,28,50,0,0,0,0,0
1565888700250,26,27,51,0,0,0,0,0
1565888700281.25,26,28,52,0,0,0,0,0
1565888700312.5,26,28,52,0,0,0,0,0
1565888700343.75,26,28,52,0,0,0,0,0
1565888700375,26,28,51,0,0,0,0,0
1565888700406.25,26,28,51,0,0,0,0,0
1565888700437.5,27,28,51,0,0,0,0,0
1565888700468.75,27,28,51,0,0,0,0,0
1565888700500,27,28,51,0,0,0,0,0
1565888700531.25,27,28,51,0,0,0,0,0
1565888700562.5,27,28,52,0,0,0,0,0
1565888700593.75,27,28,51,0,0,0,0,0
1565888700625,26,28,51,0,0,0,0,0
1565888700656.25,26,28,51,0,0,0,0,0
1565888700687.5,26,28,51,0,0,0,0,0
1565888700718.75,27,28,51,0,0,0,0,0
1565888700750,27,28,51,0,0,0,0,0
1565888700781.25,27,28,51,0,0,0,0,0
1565888700812.5,26,27,51,0,0,0,0,0
1565888700843.75,26,28,51,0,0,0,0,0
1565888700875,26,28,52,0,0,0,0,0
1565888700906.25,25,28,52,0,0,0,0,0
1565888700937.5,25,28,51,0,0,0,0,0
1565888700968.75,27,28,51,0,0,0,0,0
1565888701000,28,28,51,0,0,0,0,0
1565888701031.25,28,28,51,0,0,0,0,0
1565888701062.5,28,28,51,0,0,0,0,0
1565888701093.75,28,28,51,0,0,0,0,0
1565888701125,27,28,51,0,0,0,0,0
1565888701156.25,26,28,51,0,0,0,0,0
1565888701187.5,26,27,51,0,0,0,0,0
1565888701218.75,26,27,51,0,0,0,0,0
1565888701250,26,28,51,0,0,0,0,0
1565888701281.25,26,28,51,0,0,0,0,0
1565888701312.5,26,28,51,0,0,0,0,0
1565888701343.75,27,28,51,0,0,0,0,0
1565888701375,27,28,51,0,0,0,0,0
1565888701406.25,27,28,51,0,0,0,0,0
1565888701437.5,28,28,51,0,0,0,0,0
1565888701468.75,27,28,51,0,0,0,0,0
1565888701500,27,28,50,0,0,0,0,0
1565888701531.25,26,28,51,0,0,0,0,0
1565888701562.5,26,28,52,0,0,0,0,0
1565888701593.75,26,27,51,0,0,0,0,0
1565888701625,26,28,51,0,0,0,0,0
1565888701656.25,26,28,51,0,0,0,0,0
1565888701687.5,27,28,51,0,0,0,0,0
1565888701718.75,27,28,51,0,0,0,0,0
1565888701750,27,28,51,0,0,0,0,0
1565888701781.25,27,28,51,0,0,0,0,0
1565888701812.5,27,28,51,0,0,0,0,0
1565888701843.75,27,28,51,0,0,0,0,0
1565888701875,26,28,51,0,0,0,0,0
1565888701906.25,26,27,51,0,0,0,0,0
1565888701937.5,26,28,51,0,0,0,0,0
1565888701968.75,26,27,51,0,0,0,0,0
1565888702000,27,28,51,0,0,0,0,0
1565888702031.25,27,28,51,0,0,0,0,0
1565888702062.5,27,28,51,0,0,0,0,0
1565888702093.75,27,28,51,0,0,0,0,0
1565888702125,27,28,51,0,0,0,0,0
1565888702156.25,27,28,51,0,0,0,0,0
1565888702187.5,27,28,52,0,0,0,0,0
1565888702218.75,27,28,51,0,0,0,0,0
1565888702250,27,28,51,0,0,0,0,0
1565888702281.25,27,28,51,0,0,0,0,0
1565888702312.5,27,27,51,0,0,0,0,0
1565888702343.75,27,28,52,0,0,0,0,0
1565888702375,27,28,52,0,0,0,0,0
1565888702406.25,26,27,51,0,0,0,0,0
1565888702437.5,26,27,52,0,0,0,0,0
1565888702468.75,26,27,51,0,0,0,0,0
1565888702500,26,28,51,0,0,0,0,0
1565888702531.25,27,28,51,0,0,0,0,0
1565888702562.5,27,28,51,0,0,0,0,0
1565888702593.75,27,28,51,0,0,0,0,0
1565888702625,28,28,51,0,0,0,0,0
1565888702656.25,27,28,51,0,0,0,0,0
1565888702687.5,27,28,51,0,0,0,0,0
1565888702718.75,26,27,51,0,0,0,0,0
1565888702750,27,28,51,0,0,0,0,0
1565888702781.25,26,28,51,0,0,0,0,0
1565888702812.5,26,27,51,0,0,0,0,0
1565888702843.75,26,27,51,0,0,0,0,0
1565888702875,27,28,51,0,0,0,0,0
1565888702906.25,27,28,51,0,0,0,0,0
1565888702937.5,27,28,51,0,0,0,0,0
1565888702968.75,27,28,51,0,0,0,0,0
1565888703000,27,27,51,0,0,0,0,0
1565888703031.25,27,28,51,0,0,0,0,0
1565888703062.5,27,28,51,0,0,0,0,0
1565888703093.75,27,28,51,0,0,0,0,0
1565888703125,27,28,51,0,0,0,0,0
1565888703156.25,27,28,51,0,0,0,0,0
1565888703187.5,27,28,51,0,0,0,0,0
1565888703218.75,26,28,52,0,0,0,0,0
1565888703250,26,27,51,0,0,0,0,0
1565888703281.25,26,28,51,0,0,0,0,0
1565888703312.5,26,27,51,0,0,0,0,0
1565888703343.75,26,28,51,0,0,0,0,0
1565888703375,27,27,51,0,0,0,0,0
1565888703406.25,27,28,51,0,0,0,0,0
1565888703437.5,27,28,51,0,0,0,0,0
1565888703468.75,27,28,51,0,0,0,0,0
1565888703500,27,28,51,0,0,0,0,0
1565888703531.25,27,28,51,0,0,0,0,0
1565888703562.5,27,28,51,0,0,0,0,0
1565888703593.75,27,28,51,0,0,0,0,0
1565888703625,26,28,50,0,0,0,0,0
1565888703656.25,27,28,50,0,0,0,0,0
1565888703687.5,28,28,51,0,0,0,0,0
1565888703718.75,28,28,50,0,0,0,0,0
1565888703750,28,28,50,0,0,0,0,0
1565888703781.25,29,28,50,0,0,0,0,0
1565888703812.5,31,29,49,0,0,0,0,0
1565888703843.75,30,29,48,0,0,0,0,0
1565888703875,30,29,49,0,0,0,0,0
1565888703906.25,31,29,49,0,0,0,0,0
1565888703937.5,32,30,48,0,0,0,0,0
1565888703968.75,34,29,49,0,0,0,0,0
1565888704000,34,30,48,0,0,0,0,0
1565888704031.25,34,30,48,0,0,0,0,0
1565888704062.5,34,31,48,0,0,0,0,0
1565888704093.75,34,32,48,0,0,0,0,0
1565888704125,33,33,47,0,0,0,0,0
1565888704156.25,32,34,46,0,0,0,0,0
1565888704187.5,33,35,45,0,0,0,0,0
1565888704218.75,33,36,44,0,0,0,0,0
1565888704250,35,37,46,0,0,0,0,0
1565888704281.25,33,37,46,0,0,0,0,0
1565888704312.5,26,38,43,0,0,0,0,0
1565888704343.75,22,38,42,0,0,0,0,0
1565888704375,19,40,44,0,0,0,0,0
1565888704406.25,20,41,45,0,0,0,0,0
1565888704437.5,19,40,46,0,0,0,0,0
1565888704468.75,18,39,48,0,0,0,0,0
1565888704500,20,35,55,0,0,0,0,0
1565888704531.25,13,32,52,0,0,0,0,0
1565888704562.5,-5,32,45,0,0,0,0,0
1565888704593.75,-13,33,43,0,0,0,0,0
1565888704625,-16,36,41,0,0,0,0,0
1565888704656.25,-23,38,31,0,0,0,0,0
1565888704687.5,-28,38,31,0,0,0,0,0
1565888704718.75,-37,37,25,0,0,0,0,0
1565888704750,-42,36,20,0,0,0,0,0
1565888704781.25,-38,41,23,0,0,0,0,0
1565888704812.5,-42,41,21,0,0,0,0,0
1565888704843.75,-52,38,17,0,0,0,0,0
1565888704875,-47,35,19,0,0,0,0,0
1565888704906.25,-25,29,36,0,0,0,0,0
1565888704937.5,-16,26,42,0,0,0,0,0
1565888704968.75,-45,7,57,0,0,0,0,0
1565888705000,-42,8,69,0,0,0,0,0
1565888705031.25,-40,9,81,0,0,0,0,0
1565888705062.5,-32,9,86,0,0,0,0,0
1565888705093.75,-15,0,80,0,0,0,0,0
1565888705125,-24,-12,69,0,0,0,0,0
1565888705156.25,-40,-32,63,0,0,0,0,0
1565888705187.5,7,-25,68,0,0,0,0,0
1565888705218.75,27,-17,66,0,0,0,0,0
1565888705250,74,-12,55,0,0,0,0,0
1565888705281.25,82,-14,55,0,0,0,0,0
1565888705312.5,69,-10,60,0,0,0,0,0
1565888705343.75,56,1,62,0,0,0,0,0
1565888705375,25,8,61,0,0,0,0,0
1565888705406.25,16,8,60,0,0,0,0,0
1565888705437.5,7,12,60,0,0,0,0,0
1565888705468.75,6,14,58,0,0,0,0,0
1565888705500,7,16,56,0,0,0,0,0
1565888705531.25,20,17,56,0,0,0,0,0
1565888705562.5,23,22,55,0,0,0,0,0
1565888705593.75,22,21,50,0,0,0,0,0
1565888705625,22,26,51,0,0,0,0,0
1565888705656.25,8,25,48,0,0,0,0,0
1565888705687.5,9,26,47,0,0,0,0,0
1565888705718.75,17,28,46,0,0,0,0,0
1565888705750,16,31,46,0,0,0,0,0
1565888705781.25,14,36,50,0,0,0,0,0
1565888705812.5,13,35,48,0,0,0,0,0
1565888705843.75,19,35,47,0,0,0,0,0
1565888705875,17,34,47,0,0,0,0,0
1565888705906.25,13,31,47,0,0,0,0,0
1565888705937.5,31,28,54,0,0,0,0,0
1565888705968.75,34,26,55,0,0,0,0,0
1565888706000,38,24,58,0,0,0,0,0
1565888706031.25,38,23,58,0,0,0,0,0
1565888706062.5,35,26,53,0,0,0,0,0
1565888706093.75,30,27,51,0,0,0,0,0
1565888706125,21,29,52,0,0,0,0,0
1565888706156.25,18,29,52,0,0,0,0,0
1565888706187.5,15,29,53,0,0,0,0,0
1565888706218.75,14,30,53,0,0,0,0,0
1565888706250,13,30,55,0,0,0,0,0
1565888706281.25,14,27,58,0,0,0,0,0
1565888706312.5,15,27,57,0,0,0,0,0
1565888706343.75,11,27,55,0,0,0,0,0
1565888706375,11,27,55,0,0,0,0,0
1565888706406.25,13,29,54,0,0,0,0,0
1565888706437.5,12,29,54,0,0,0,0,0
1565888706468.75,6,27,57,0,0,0,0,0
1565888706500,2,25,59,0,0,0,0,0
1565888706531.25,-4,23,61,0,0,0,0,0
1565888706562.5,-8,23,61,0,0,0,0,0
1565888706593.75,-11,21,60,0,0,0,0,0
1565888706625,-13,23,59,0,0,0,0,0
1565888706656.25,-15,23,59,0,0,0,0,0
1565888706687.5,-15,22,59,0,0,0,0,0
1565888706718.75,-15,23,60,0,0,0,0,0
1565888706750,-16,23,60,0,0,0,0,0
1565888706781.25,-16,24,59,0,0,0,0,0
1565888706812.5,-16,25,59,0,0,0,0,0
1565888706843.75,-15,25,58,0,0,0,0,0
1565888706875,-10,26,58,0,0,0,0,0
1565888706906.25,-10,26,58,0,0,0,0,0
1565888706937.5,-9,26,59,0,0,0,0,0
1565888706968.75,-9,26,59,0,0,0,0,0
1565888707000,-9,26,58,0,0,0,0,0
1565888707031.25,-9,25,58,0,0,0,0,0
1565888707062.5,-10,25,58,0,0,0,0,0
1565888707093.75,-10,25,58,0,0,0,0,0
1565888707125,-10,26,58,0,0,0,0,0
1565888707156.25,-9,25,58,0,0,0,0,0
1565888707187.5,-9,25,58,0,0,0,0,0
1565888707218.75,-9,25,59,0,0,0,0,0
1565888707250,-9,25,59,0,0,0,0,0
1565888707281.25,-9,26,58,0,0,0,0,0
1565888707312.5,-9,26,58,0,0,0,0,0
1565888707343.75,-8,26,58,0,0,0,0,0
1565888707375,-8,26,58,0,0,0,0,0
1565888707406.25,-9,27,57,0,0,0,0,0
1565888707437.5,-8,27,57,0,0,0,0,0
1565888707468.75,-7,26,57,0,0,0,0,0
1565888707500,-8,26,59,0,0,0,0,0
1565888707531.25,-9,27,59,0,0,0,0,0
1565888707562.5,-10,26,59,0,0,0,0,0
1565888707593.75,-11,25,59,0,0,0,0,0
1565888707625,-11,24,58,0,0,0,0,0
1565888707656.25,-12,23,59,0,0,0,0,0
1565888707687.5,-13,23,59,0,0,0,0,0
1565888707718.75,-12,23,59,0,0,0,0,0
1565888707750,-12,23,60,0,0,0,0,0
1565888707781.25,-11,23,59,0,0,0,0,0
1565888707812.5,-10,24,59,0,0,0,0,0
1565888707843.75,-10,25,59,0,0,0,0,0
1565888707875,-9,26,57,0,0,0,0,0
1565888707906.25,-8,26,58,0,0,0,0,0
1565888707937.5,-9,26,58,0,0,0,0,0
1565888707968.75,-11,27,58,0,0,0,0,0
1565888708000,-11,27,57,0,0,0,0,0
1565888708031.25,-12,26,58,0,0,0,0,0
1565888708062.5,-11,26,58,0,0,0,0,0
1565888708093.75,-10,25,58,0,0,0,0,0
1565888708125,-10,25,58,0,0,0,0,0
1565888708156.25,-10,25,58,0,0,0,0,0
1565888708187.5,-10,25,59,0,0,0,0,0
1565888708218.75,-11,24,59,0,0,0,0,0
1565888708250,-11,24,59,0,0,0,0,0
1565888708281.25,-11,25,58,0,0,0,0,0
1565888708312.5,-11,25,59,0,0,0,0,0
1565888708343.75,-10,25,59,0,0,0,0,0
1565888708375,-9,25,58,0,0,0,0,0
1565888708406.25,-9,25,58,0,0,0,0,0
1565888708437.5,-9,25,58,0,0,0,0,0
1565888708468.75,-9,25,59,0,0,0,0,0
1565888708500,-10,25,59,0,0,0,0,0
1565888708531.25,-10,25,58,0,0,0,0,0
1565888708562.5,-11,25,58,0,0,0,0,0
1565888708593.75,-11,24,58,0,0,0,0,0
1565888708625,-11,25,58,0,0,0,0,0
1565888708656.25,-10,25,58,0,0,0,0,0
1565888708687.5,-11,25,58,0,0,0,0,0
1565888708718.75,-11,25,58,0,0,0,0,0
1565888708750,-11,25,58,0,0,0,0,0
1565888708781.25,-10,25,58,0,0,0,0,0
1565888708812.5,-10,25,58,0,0,0,0,0
1565888708843.75,-9,25,58,0,0,0,0,0
1565888708875,-10,25,58,0,0,0,0,0
1565888708906.25,-10,25,58,0,0,0,0,0
1565888708937.5,-10,25,58,0,0,0,0,0
1565888708968.75,-11,25,58,0,0,0,0,0
1565888709000,-11,25,58,0,0,0,0,0
1565888709031.25,-10,25,59,0,0,0,0,0
1565888709062.5,-10,25,58,0,0,0,0,0
1565888709093.75,-10,25,59,0,0,0,0,0
1565888709125,-11,25,59,0,0,0,0,0
1565888709156.25,-11,25,59,0,0,0,0,0
1565888709187.5,-10,25,58,0,0,0,0,0
1565888709218.75,-10,25,58,0,0,0,0,0
1565888709250,-10,24,58,0,0,0,0,0
1565888709281.25,-10,25,59,0,0,0,0,0
1565888709312.5,-10,25,58,0,0,0,0,0
1565888709343.75,-10,25,58,0,0,0,0,0
1565888709375,-10,25,58,0,0,0,0,0
1565888709406.25,-10,25,58,0,0,0,0,0
1565888709437.5,-10,25,58,0,0,0,0,0
1565888709468.75,-10,25,58,0,0,0,0,0
1565888709500,-10,26,58,0,0,0,0,0
1565888709531.25,-9,25,58,0,0,0,0,0
1565888709562.5,-10,25,58,0,0,0,0,0
1565888709593.75,-11,26,58,0,0,0,0,0
1565888709625,-10,26,58,0,0,0,0,0
1565888709656.25,-10,26,58,0,0,0,0,0
1565888709687.5,-10,26,58,0,0,0,0,0
1565888709718.75,-11,26,58,0,0,0,0,0
1565888709750,-11,26,58,0,0,0,0,0
1565888709781.25,-10,26,58,0,0,0,0,0
1565888709812.5,-10,26,58,0,0,0,0,0
1565888709843.75,-10,26,58,0,0,0,0,0
1565888709875,-11,26,58,0,0,0,0,0
1565888709906.25,-10,27,58,0,0,0,0,0
1565888709937.5,-11,26,59,0,0,0,0,0
1565888709968.75,-11,26,59,0,0,0,0,0
1565888710000,-9,26,59,0,0,0,0,0
1565888710031.25,-9,26,59,0,0,0,0,0
1565888710062.5,-8,24,59,0,0,0,0,0
1565888710093.75,-6,25,59,0,0,0,0,0
1565888710125,-6,25,60,0,0,0,0,0
1565888710156.25,-4,26,60,0,0,0,0,0
1565888710187.5,0,28,62,0,0,0,0,0
1565888710218.75,1,28,63,0,0,0,0,0
1565888710250,7,29,62,0,0,0,0,0
1565888710281.25,12,30,60,0,0,0,0,0
1565888710312.5,17,29,58,0,0,0,0,0
1565888710343.75,18,27,58,0,0,0,0,0
1565888710375,18,27,59,0,0,0,0,0
1565888710406.25,23,27,58,0,0,0,0,0
1565888710437.5,24,27,58,0,0,0,0,0
1565888710468.75,25,23,58,0,0,0,0,0
1565888710500,28,23,57,0,0,0,0,0
1565888710531.25,30,19,53,0,0,0,0,0
1565888710562.5,33,16,52,0,0,0,0,0
1565888710593.75,34,13,52,0,0,0,0,0
1565888710625,34,12,52,0,0,0,0,0
1565888710656.25,35,15,48,0,0,0,0,0
1565888710687.5,33,16,47,0,0,0,0,0
1565888710718.75,30,21,44,0,0,0,0,0
1565888710750,33,25,41,0,0,0,0,0
1565888710781.25,31,28,40,0,0,0,0,0
1565888710812.5,32,35,40,0,0,0,0,0
1565888710843.75,31,40,39,0,0,0,0,0
1565888710875,27,46,40,0,0,0,0,0
1565888710906.25,24,47,39,0,0,0,0,0
1565888710937.5,14,51,35,0,0,0,0,0
1565888710968.75,13,53,33,0,0,0,0,0
1565888711000,9,51,30,0,0,0,0,0
1565888711031.25,4,52,27,0,0,0,0,0
1565888711062.5,4,53,25,0,0,0,0,0
1565888711093.75,3,51,21,0,0,0,0,0
1565888711125,2,49,18,0,0,0,0,0
1565888711156.25,0,48,18,0,0,0,0,0
1565888711187.5,-1,47,17,0,0,0,0,0
1565888711218.75,-5,44,16,0,0,0,0,0
1565888711250,-9,44,20,0,0,0,0,0
1565888711281.25,-15,44,31,0,0,0,0,0
1565888711312.5,-15,49,35,0,0,0,0,0
1565888711343.75,-18,55,45,0,0,0,0,0
1565888711375,-23,52,47,0,0,0,0,0
1565888711406.25,-58,22,60,0,0,0,0,0
1565888711437.5,-66,5,64,0,0,0,0,0
1565888711468.75,-23,20,60,0,0,0,0,0
1565888711500,6,40,67,0,0,0,0,0
1565888711531.25,20,27,71,0,0,0,0,0
1565888711562.5,-1,40,65,0,0,0,0,0
1565888711593.75,-14,37,58,0,0,0,0,0
1565888711625,-28,32,53,0,0,0,0,0
1565888711656.25,-34,31,60,0,0,0,0,0
1565888711687.5,-46,28,75,0,0,0,0,0
1565888711718.75,-44,30,68,0,0,0,0,0
1565888711750,-14,33,48,0,0,0,0,0
1565888711781.25,-17,26,43,0,0,0,0,0
1565888711812.5,-31,18,29,0,0,0,0,0
1565888711843.75,-34,15,22,0,0,0,0,0
1565888711875,-29,13,-3,0,0,0,0,0
1565888711906.25,-39,-20,-16,0,0,0,0,0
1565888711937.5,-63,-49,-6,0,0,0,0,0
1565888711968.75,-87,-4,2,0,0,0,0,0
1565888712000,-84,-8,13,0,0,0,0,0
1565888712031.25,-119,30,117,0,0,0,0,0
1565888712062.5,-61,56,127,0,0,0,0,0
1565888712093.75,1,60,78,0,0,0,0,0
1565888712125,9,35,59,0,0,0,0,0
1565888712156.25,-37,-11,54,0,0,0,0,0
1565888712187.5,-53,-28,54,0,0,0,0,0
1565888712218.75,-48,-49,37,0,0,0,0,0
1565888712250,-45,-47,36,0,0,0,0,0
1565888712281.25,-45,-27,42,0,0,0,0,0
1565888712312.5,-40,-20,41,0,0,0,0,0
1565888712343.75,-41,-24,39,0,0,0,0,0
1565888712375,-43,-34,41,0,0,0,0,0
1565888712406.25,-37,-35,36,0,0,0,0,0
1565888712437.5,-44,-38,32,0,0,0,0,0
1565888712468.75,-44,-39,28,0,0,0,0,0
1565888712500,-45,-41,27,0,0,0,0,0
1565888712531.25,-40,-40,28,0,0,0,0,0
1565888712562.5,-42,-41,28,0,0,0,0,0
1565888712593.75,-41,-42,30,0,0,0,0,0
1565888712625,-37,-43,32,0,0,0,0,0
1565888712656.25,-38,-44,32,0,0,0,0,0
1565888712687.5,-35,-46,32,0,0,0,0,0
1565888712718.75,-34,-47,32,0,0,0,0,0
1565888712750,-33,-51,34,0,0,0,0,0
1565888712781.25,-39,-56,34,0,0,0,0,0
1565888712812.5,-41,-57,32,0,0,0,0,0
1565888712843.75,-35,-47,33,0,0,0,0,0
1565888712875,-42,-43,37,0,0,0,0,0
1565888712906.25,-68,-44,17,0,0,0,0,0
1565888712937.5,-77,-59,6,0,0,0,0,0
1565888712968.75,-74,-44,6,0,0,0,0,0
1565888713000,-50,-27,10,0,0,0,0,0
1565888713031.25,-45,-27,5,0,0,0,0,0
1565888713062.5,-22,-32,5,0,0,0,0,0
1565888713093.75,2,-45,15,0,0,0,0,0
1565888713125,18,-48,29,0,0,0,0,0
1565888713156.25,24,-60,28,0,0,0,0,0
1565888713187.5,-19,-58,46,0,0,0,0,0
1565888713218.75,-47,-51,31,0,0,0,0,0
1565888713250,-37,-56,15,0,0,0,0,0
1565888713281.25,-39,-53,14,0,0,0,0,0
1565888713312.5,-36,-55,11,0,0,0,0,0
1565888713343.75,-32,-57,10,0,0,0,0,0
1565888713375,-27,-56,8,0,0,0,0,0
1565888713406.25,-26,-58,8,0,0,0,0,0
1565888713437.5,-35,-67,9,0,0,0,0,0
1565888713468.75,-45,-69,11,0,0,0,0,0
1565888713500,-34,-68,4,0,0,0,0,0
1565888713531.25,-14,-67,3,0,0,0,0,0
1565888713562.5,-11,-64,1,0,0,0,0,0
1565888713593.75,-19,-62,1,0,0,0,0,0
1565888713625,-22,-61,-1,0,0,0,0,0
1565888713656.25,-28,-63,-7,0,0,0,0,0
1565888713687.5,-27,-63,-5,0,0,0,0,0
1565888713718.75,-26,-60,-3,0,0,0,0,0
1565888713750,-25,-59,-1,0,0,0,0,0
1565888713781.25,-23,-59,6,0,0,0,0,0
1565888713812.5,-21,-60,7,0,0,0,0,0
1565888713843.75,-19,-72,9,0,0,0,0,0
1565888713875,-15,-83,8,0,0,0,0,0
1565888713906.25,-3,-95,28,0,0,0,0,0
1565888713937.5,-5,-97,23,0,0,0,0,0
1565888713968.75,-7,-90,25,0,0,0,0,0
1565888714000,-5,-76,33,0,0,0,0,0
1565888714031.25,-12,-73,23,0,0,0,0,0
1565888714062.5,-16,-74,16,0,0,0,0,0
1565888714093.75,-18,-64,9,0,0,0,0,0
1565888714125,-5,-49,4,0,0,0,0,0
1565888714156.25,1,-43,-2,0,0,0,0,0
1565888714187.5,-7,-35,-13,0,0,0,0,0
1565888714218.75,-9,-30,-20,0,0,0,0,0
1565888714250,-20,-33,-25,0,0,0,0,0
1565888714281.25,-20,-29,-26,0,0,0,0,0
1565888714312.5,-22,-35,-16,0,0,0,0,0
1565888714343.75,-28,-44,20,0,0,0,0,0
1565888714375,-22,-58,63,0,0,0,0,0
1565888714406.25,-16,-46,42,0,0,0,0,0
1565888714437.5,-22,-44,26,0,0,0,0,0
1565888714468.75,-24,-44,16,0,0,0,0,0
1565888714500,-23,-46,14,0,0,0,0,0
1565888714531.25,-25,-49,10,0,0,0,0,0
1565888714562.5,-28,-50,9,0,0,0,0,0
1565888714593.75,-31,-50,8,0,0,0,0,0
1565888714625,-21,-50,12,0,0,0,0,0
1565888714656.25,-35,-44,9,0,0,0,0,0
1565888714687.5,-42,-53,11,0,0,0,0,0
1565888714718.75,-55,-78,36,0,0,0,0,0
1565888714750,-49,-72,23,0,0,0,0,0
1565888714781.25,-50,-66,8,0,0,0,0,0
1565888714812.5,-40,-56,-7,0,0,0,0,0
1565888714843.75,-37,-50,-5,0,0,0,0,0
1565888714875,-50,-45,-14,0,0,0,0,0
1565888714906.25,-53,-41,-21,0,0,0,0,0
1565888714937.5,-56,-37,-28,0,0,0,0,0
1565888714968.75,-52,-34,-27,0,0,0,0,0
1565888715000,-41,-22,-19,0,0,0,0,0
1565888715031.25,-39,-19,-26,0,0,0,0,0
1565888715062.5,-37,-16,-36,0,0,0,0,0
1565888715093.75,-37,-14,-30,0,0,0,0,0
1565888715125,-47,-13,-32,0,0,0,0,0
1565888715156.25,-48,-12,-31,0,0,0,0,0
1565888715187.5,-51,-13,-30,0,0,0,0,0
1565888715218.75,-57,-15,-28,0,0,0,0,0
1565888715250,-63,-19,-26,0,0,0,0,0
1565888715281.25,-64,-25,-21,0,0,0,0,0
1565888715312.5,-69,-28,-16,0,0,0,0,0
1565888715343.75,-73,-46,3,0,0,0,0,0
1565888715375,-63,-50,0,0,0,0,0,0
1565888715406.25,-65,-50,-2,0,0,0,0,0
1565888715437.5,-72,-49,-11,0,0,0,0,0
1565888715468.75,-76,-45,-21,0,0,0,0,0
1565888715500,-74,-39,-20,0,0,0,0,0
1565888715531.25,-75,-32,-9,0,0,0,0,0
1565888715562.5,-58,-31,-14,0,0,0,0,0
1565888715593.75,-51,-30,-12,0,0,0,0,0
1565888715625,-52,-26,-17,0,0,0,0,0
1565888715656.25,-50,-22,-19,0,0,0,0,0
1565888715687.5,-43,-12,-17,0,0,0,0,0
1565888715718.75,-47,-9,-18,0,0,0,0,0
1565888715750,-52,-3,-17,0,0,0,0,0
1565888715781.25,-57,1,-14,0,0,0,0,0
1565888715812.5,-54,9,-11,0,0,0,0,0
1565888715843.75,-52,13,-12,0,0,0,0,0
1565888715875,-50,24,-8,0,0,0,0,0
1565888715906.25,-46,29,-7,0,0,0,0,0
1565888715937.5,-46,37,-11,0,0,0,0,0
1565888715968.75,-47,50,-3,0,0,0,0,0
1565888716000,-52,54,-5,0,0,0,0,0
1565888716031.25,-50,52,-11,0,0,0,0,0
1565888716062.5,-43,51,-10,0,0,0,0,0
1565888716093.75,-42,55,-21,0,0,0,0,0
1565888716125,-43,55,-19,0,0,0,0,0
1565888716156.25,-49,60,-11,0,0,0,0,0
1565888716187.5,-55,59,-11,0,0,0,0,0
1565888716218.75,-62,53,-15,0,0,0,0,0
1565888716250,-56,51,-13,0,0,0,0,0
1565888716281.25,-36,47,-2,0,0,0,0,0
1565888716312.5,-28,49,6,0,0,0,0,0
1565888716343.75,-32,51,8,0,0,0,0,0
1565888716375,-28,53,5,0,0,0,0,0
1565888716406.25,-25,53,3,0,0,0,0,0
1565888716437.5,-24,50,-9,0,0,0,0,0
1565888716468.75,-25,50,-15,0,0,0,0,0
1565888716500,-20,54,-13,0,0,0,0,0
1565888716531.25,-19,54,-12,0,0,0,0,0
1565888716562.5,-8,54,-2,0,0,0,0,0
1565888716593.75,-6,55,2,0,0,0,0,0
1565888716625,2,58,8,0,0,0,0,0
1565888716656.25,9,61,12,0,0,0,0,0
1565888716687.5,24,65,14,0,0,0,0,0
1565888716718.75,30,70,15,0,0,0,0,0
1565888716750,41,69,15,0,0,0,0,0
1565888716781.25,39,62,14,0,0,0,0,0
1565888716812.5,39,56,13,0,0,0,0,0
1565888716843.75,39,40,11,0,0,0,0,0
1565888716875,37,34,9,0,0,0,0,0
1565888716906.25,38,17,0,0,0,0,0,0
1565888716937.5,45,12,-2,0,0,0,0,0
1565888716968.75,48,4,-2,0,0,0,0,0
1565888717000,49,2,-1,0,0,0,0,0
1565888717031.25,49,-8,0,0,0,0,0,0
1565888717062.5,54,-10,3,0,0,0,0,0
1565888717093.75,53,-9,7,0,0,0,0,0
1565888717125,57,-11,11,0,0,0,0,0
1565888717156.25,59,-12,14,0,0,0,0,0
1565888717187.5,57,-8,10,0,0,0,0,0
1565888717218.75,60,-8,11,0,0,0,0,0
1565888717250,64,-7,11,0,0,0,0,0
1565888717281.25,64,-7,9,0,0,0,0,0
1565888717312.5,64,-5,7,0,0,0,0,0
1565888717343.75,61,-6,5,0,0,0,0,0
1565888717375,65,-6,-4,0,0,0,0,0
1565888717406.25,66,0,-8,0,0,0,0,0
1565888717437.5,75,-1,-6,0,0,0,0,0
1565888717468.75,80,4,-8,0,0,0,0,0
1565888717500,79,11,-8,0,0,0,0,0
1565888717531.25,73,10,-7,0,0,0,0,0
1565888717562.5,59,10,-14,0,0,0,0,0
1565888717593.75,64,5,-18,0,0,0,0,0
1565888717625,68,6,-15,0,0,0,0,0
1565888717656.25,56,9,-13,0,0,0,0,0
1565888717687.5,53,8,-13,0,0,0,0,0
1565888717718.75,53,6,-11,0,0,0,0,0
1565888717750,54,6,-10,0,0,0,0,0
1565888717781.25,54,8,-11,0,0,0,0,0
1565888717812.5,54,8,-12,0,0,0,0,0
1565888717843.75,58,10,-11,0,0,0,0,0
1565888717875,60,11,-12,0,0,0,0,0
1565888717906.25,58,11,-10,0,0,0,0,0
1565888717937.5,57,11,-10,0,0,0,0,0
1565888717968.75,56,11,-10,0,0,0,0,0
1565888718000,59,8,-12,0,0,0,0,0
1565888718031.25,63,6,-13,0,0,0,0,0
1565888718062.5,66,7,-12,0,0,0,0,0
1565888718093.75,65,8,-12,0,0,0,0,0
1565888718125,61,8,-10,0,0,0,0,0
1565888718156.25,63,3,-13,0,0,0,0,0
1565888718187.5,71,4,-14,0,0,0,0,0
1565888718218.75,63,5,-11,0,0,0,0,0
1565888718250,62,4,-11,0,0,0,0,0
1565888718281.25,64,4,-11,0,0,0,0,0
1565888718312.5,56,6,-8,0,0,0,0,0
1565888718343.75,52,5,-6,0,0,0,0,0
1565888718375,49,1,-6,0,0,0,0,0
1565888718406.25,64,-3,-9,0,0,0,0,0
1565888718437.5,65,-2,-7,0,0,0,0,0
1565888718468.75,66,-2,-6,0,0,0,0,0
1565888718500,63,-2,-6,0,0,0,0,0
1565888718531.25,60,-3,-6,0,0,0,0,0
1565888718562.5,61,-2,-6,0,0,0,0,0
1565888718593.75,57,0,-5,0,0,0,0,0
1565888718625,53,1,-6,0,0,0,0,0
1565888718656.25,51,3,-6,0,0,0,0,0
1565888718687.5,51,3,-5,0,0,0,0,0
1565888718718.75,51,3,-2,0,0,0,0,0
1565888718750,55,3,-3,0,0,0,0,0
1565888718781.25,60,6,-2,0,0,0,0,0
1565888718812.5,64,5,-8,0,0,0,0,0
1565888718843.75,75,6,-12,0,0,0,0,0
1565888718875,83,14,-10,0,0,0,0,0
1565888718906.25,79,16,-6,0,0,0,0,0
1565888718937.5,73,23,-3,0,0,0,0,0
1565888718968.75,67,25,-2,0,0,0,0,0
1565888719000,55,26,0,0,0,0,0,0
1565888719031.25,48,26,-1,0,0,0,0,0
1565888719062.5,52,22,-7,0,0,0,0,0
1565888719093.75,58,22,-10,0,0,0,0,0
1565888719125,56,22,-9,0,0,0,0,0
1565888719156.25,52,20,-8,0,0,0,0,0
1565888719187.5,46,19,-6,0,0,0,0,0
1565888719218.75,46,23,-3,0,0,0,0,0
1565888719250,49,24,-4,0,0,0,0,0
1565888719281.25,51,26,-6,0,0,0,0,0
1565888719312.5,53,26,-5,0,0,0,0,0
1565888719343.75,56,28,-4,0,0,0,0,0
1565888719375,54,30,-3,0,0,0,0,0
1565888719406.25,55,29,5,0,0,0,0,0
1565888719437.5,57,29,6,0,0,0,0,0
1565888719468.75,46,28,10,0,0,0,0,0
1565888719500,48,24,15,0,0,0,0,0
1565888719531.25,53,27,20,0,0,0,0,0
1565888719562.5,39,29,34,0,0,0,0,0
1565888719593.75,24,30,41,0,0,0,0,0
1565888719625,20,30,53,0,0,0,0,0
1565888719656.25,14,27,61,0,0,0,0,0
1565888719687.5,14,21,74,0,0,0,0,0
1565888719718.75,11,23,67,0,0,0,0,0
1565888719750,5,31,63,0,0,0,0,0
1565888719781.25,8,35,63,0,0,0,0,0
1565888719812.5,1,40,61,0,0,0,0,0
1565888719843.75,-4,41,60,0,0,0,0,0
1565888719875,-3,39,55,0,0,0,0,0
1565888719906.25,0,37,55,0,0,0,0,0
1565888719937.5,2,34,55,0,0,0,0,0
1565888719968.75,-2,30,55,0,0,0,0,0
1565888720000,-9,27,56,0,0,0,0,0
1565888720031.25,-11,27,55,0,0,0,0,0
1565888720062.5,-9,28,53,0,0,0,0,0
1565888720093.75,-9,31,53,0,0,0,0,0
1565888720125,-10,33,55,0,0,0,0,0
1565888720156.25,-10,35,55,0,0,0,0,0
1565888720187.5,-13,36,54,0,0,0,0,0
1565888720218.75,-16,34,54,0,0,0,0,0
1565888720250,-15,34,53,0,0,0,0,0
1565888720281.25,-14,32,50,0,0,0,0,0
1565888720312.5,-16,32,51,0,0,0,0,0
1565888720343.75,-20,36,53,0,0,0,0,0
1565888720375,-24,37,56,0,0,0,0,0
1565888720406.25,-28,39,59,0,0,0,0,0
1565888720437.5,-32,34,60,0,0,0,0,0
1565888720468.75,-28,32,57,0,0,0,0,0
1565888720500,-26,29,47,0,0,0,0,0
1565888720531.25,-27,28,43,0,0,0,0,0
1565888720562.5,-32,29,38,0,0,0,0,0
1565888720593.75,-33,31,39,0,0,0,0,0
1565888720625,-35,35,38,0,0,0,0,0
1565888720656.25,-38,36,37,0,0,0,0,0
1565888720687.5,-43,38,34,0,0,0,0,0
1565888720718.75,-44,38,34,0,0,0,0,0
1565888720750,-42,35,38,0,0,0,0,0
1565888720781.25,-42,34,39,0,0,0,0,0
1565888720812.5,-42,31,42,0,0,0,0,0
1565888720843.75,-41,32,41,0,0,0,0,0
1565888720875,-41,32,40,0,0,0,0,0
1565888720906.25,-44,32,38,0,0,0,0,0
1565888720937.5,-46,32,36,0,0,0,0,0
1565888720968.75,-47,32,35,0,0,0,0,0
1565888721000,-47,32,35,0,0,0,0,0
1565888721031.25,-45,35,36,0,0,0,0,0
1565888721062.5,-44,35,36,0,0,0,0,0
1565888721093.75,-43,35,37,0,0,0,0,0
1565888721125,-43,35,37,0,0,0,0,0
1565888721156.25,-41,36,37,0,0,0,0,0
1565888721187.5,-40,37,38,0,0,0,0,0
1565888721218.75,-43,37,38,0,0,0,0,0
1565888721250,-42,38,38,0,0,0,0,0
1565888721281.25,-41,39,38,0,0,0,0,0
1565888721312.5,-37,37,39,0,0,0,0,0
1565888721343.75,-37,36,38,0,0,0,0,0
1565888721375,-34,34,36,0,0,0,0,0
1565888721406.25,-33,34,34,0,0,0,0,0
1565888721437.5,-33,34,34,0,0,0,0,0
1565888721468.75,-33,34,35,0,0,0,0,0
1565888721500,-34,35,38,0,0,0,0,0
1565888721531.25,-35,35,38,0,0,0,0,0
1565888721562.5,-35,36,40,0,0,0,0,0
1565888721593.75,-36,38,41,0,0,0,0,0
1565888721625,-36,38,40,0,0,0,0,0
1565888721656.25,-35,38,39,0,0,0,0,0
1565888721687.5,-35,38,38,0,0,0,0,0
1565888721718.75,-34,38,39,0,0,0,0,0
1565888721750,-34,38,39,0,0,0,0,0
1565888721781.25,-34,38,39,0,0,0,0,0
1565888721812.5,-35,38,40,0,0,0,0,0
1565888721843.75,-34,37,41,0,0,0,0,0
1565888721875,-33,37,41,0,0,0,0,0
1565888721906.25,-32,38,38,0,0,0,0,0
1565888721937.5,-31,38,38,0,0,0,0,0
1565888721968.75,-30,38,37,0,0,0,0,0
1565888722000,-31,39,37,0,0,0,0,0
1565888722031.25,-31,40,38,0,0,0,0,0
1565888722062.5,-34,40,40,0,0,0,0,0
1565888722093.75,-34,39,41,0,0,0,0,0
1565888722125,-33,38,40,0,0,0,0,0
1565888722156.25,-33,37,40,0,0,0,0,0
1565888722187.5,-33,37,39,0,0,0,0,0
1565888722218.75,-33,36,39,0,0,0,0,0
1565888722250,-33,37,38,0,0,0,0,0
1565888722281.25,-32,36,39,0,0,0,0,0
1565888722312.5,-34,37,40,0,0,0,0,0
1565888722343.75,-34,37,40,0,0,0,0,0
1565888722375,-34,37,40,0,0,0,0,0
1565888722406.25,-34,37,40,0,0,0,0,0
1565888722437.5,-34,37,39,0,0,0,0,0
1565888722468.75,-35,37,39,0,0,0,0,0
1565888722500,-35,37,39,0,0,0,0,0
1565888722531.25,-35,37,39,0,0,0,0,0
1565888722562.5,-36,36,39,0,0,0,0,0
1565888722593.75,-36,36,39,0,0,0,0,0
1565888722625,-35,36,39,0,0,0,0,0
1565888722656.25,-36,37,39,0,0,0,0,0
1565888722687.5,-36,37,38,0,0,0,0,0
1565888722718.75,-35,37,38,0,0,0,0,0
1565888722750,-35,37,38,0,0,0,0,0
1565888722781.25,-37,37,38,0,0,0,0,0
1565888722812.5,-35,38,39,0,0,0,0,0
1565888722843.75,-36,38,38,0,0,0,0,0
1565888722875,-38,38,38,0,0,0,0,0
1565888722906.25,-37,38,37,0,0,0,0,0
1565888722937.5,-37,37,38,0,0,0,0,0
1565888722968.75,-37,36,37,0,0,0,0,0
1565888723000,-37,36,37,0,0,0,0,0
1565888723031.25,-37,35,38,0,0,0,0,0
1565888723062.5,-38,35,38,0,0,0,0,0
1565888723093.75,-38,35,38,0,0,0,0,0
1565888723125,-38,36,38,0,0,0,0,0
1565888723156.25,-38,36,38,0,0,0,0,0
1565888723187.5,-37,37,38,0,0,0,0,0
1565888723218.75,-37,37,37,0,0,0,0,0
1565888723250,-37,37,37,0,0,0,0,0
1565888723281.25,-37,37,37,0,0,0,0,0
1565888723312.5,-37,37,36,0,0,0,0,0
1565888723343.75,-38,37,37,0,0,0,0,0
1565888723375,-38,37,38,0,0,0,0,0
1565888723406.25,-37,36,37,0,0,0,0,0
1565888723437.5,-37,36,37,0,0,0,0,0
1565888723468.75,-37,35,37,0,0,0,0,0
1565888723500,-37,35,37,0,0,0,0,0
1565888723531.25,-37,36,37,0,0,0,0,0
1565888723562.5,-37,36,37,0,0,0,0,0
1565888723593.75,-37,37,37,0,0,0,0,0
1565888723625,-37,38,38,0,0,0,0,0
1565888723656.25,-37,39,37,0,0,0,0,0
1565888723687.5,-37,39,37,0,0,0,0,0
1565888723718.75,-37,38,37,0,0,0,0,0
1565888723750,-37,37,36,0,0,0,0,0
1565888723781.25,-37,37,36,0,0,0,0,0
1565888723812.5,-38,36,37,0,0,0,0,0
1565888723843.75,-38,36,37,0,0,0,0,0
1565888723875,-40,36,38,0,0,0,0,0
1565888723906.25,-40,36,38,0,0,0,0,0
1565888723937.5,-38,36,37,0,0,0,0,0
1565888723968.75,-38,36,37,0,0,0,0,0
1565888724000,-38,36,36,0,0,0,0,0
1565888724031.25,-38,36,36,0,0,0,0,0
1565888724062.5,-38,36,36,0,0,0,0,0
1565888724093.75,-37,37,37,0,0,0,0,0
1565888724125,-37,37,36,0,0,0,0,0
1565888724156.25,-37,37,37,0,0,0,0,0
1565888724187.5,-38,37,37,0,0,0,0,0
1565888724218.75,-38,38,37,0,0,0,0,0
1565888724250,-38,38,37,0,0,0,0,0
1565888724281.25,-37,37,36,0,0,0,0,0
1565888724312.5,-37,37,36,0,0,0,0,0
1565888724343.75,-36,37,36,0,0,0,0,0
1565888724375,-36,37,36,0,0,0,0,0
1565888724406.25,-37,38,36,0,0,0,0,0
1565888724437.5,-37,38,36,0,0,0,0,0
1565888724468.75,-37,37,37,0,0,0,0,0
1565888724500,-36,37,37,0,0,0,0,0
1565888724531.25,-37,37,37,0,0,0,0,0
1565888724562.5,-36,38,37,0,0,0,0,0
1565888724593.75,-37,38,36,0,0,0,0,0
1565888724625,-37,38,36,0,0,0,0,0
1565888724656.25,-37,38,37,0,0,0,0,0
1565888724687.5,-38,38,37,0,0,0,0,0
1565888724718.75,-39,38,37,0,0,0,0,0
1565888724750,-41,37,37,0,0,0,0,0
1565888724781.25,-41,37,37,0,0,0,0,0
1565888724812.5,-38,36,37,0,0,0,0,0
1565888724843.75,-37,34,36,0,0,0,0,0
1565888724875,-37,33,36,0,0,0,0,0
1565888724906.25,-36,32,36,0,0,0,0,0
1565888724937.5,-35,32,36,0,0,0,0,0
1565888724968.75,-37,34,37,0,0,0,0,0
1565888725000,-38,35,37,0,0,0,0,0
1565888725031.25,-40,37,38,0,0,0,0,0
1565888725062.5,-41,38,38,0,0,0,0,0
1565888725093.75,-41,38,38,0,0,0,0,0
1565888725125,-39,38,38,0,0,0,0,0
1565888725156.25,-38,37,36,0,0,0,0,0
1565888725187.5,-38,37,36,0,0,0,0,0
1565888725218.75,-38,36,35,0,0,0,0,0
1565888725250,-37,36,36,0,0,0,0,0
1565888725281.25,-38,36,36,0,0,0,0,0
1565888725312.5,-39,36,37,0,0,0,0,0
1565888725343.75,-39,36,38,0,0,0,0,0
1565888725375,-39,36,37,0,0,0,0,0
1565888725406.25,-39,36,37,0,0,0,0,0
1565888725437.5,-39,37,37,0,0,0,0,0
1565888725468.75,-39,36,37,0,0,0,0,0
1565888725500,-37,36,36,0,0,0,0,0
1565888725531.25,-36,37,36,0,0,0,0,0
1565888725562.5,-35,37,36,0,0,0,0,0
1565888725593.75,-35,37,36,0,0,0,0,0
1565888725625,-41,37,36,0,0,0,0,0
1565888725656.25,-42,36,35,0,0,0,0,0
1565888725687.5,-41,36,37,0,0,0,0,0
1565888725718.75,-42,35,36,0,0,0,0,0
1565888725750,-42,34,36,0,0,0,0,0
1565888725781.25,-45,33,36,0,0,0,0,0
1565888725812.5,-43,34,37,0,0,0,0,0
1565888725843.75,-43,33,37,0,0,0,0,0
1565888725875,-42,33,37,0,0,0,0,0
1565888725906.25,-41,33,38,0,0,0,0,0
1565888725937.5,-41,34,38,0,0,0,0,0
1565888725968.75,-42,33,38,0,0,0,0,0
1565888726000,-39,34,38,0,0,0,0,0
1565888726031.25,-38,35,39,0,0,0,0,0
1565888726062.5,-41,35,41,0,0,0,0,0
1565888726093.75,-41,35,42,0,0,0,0,0
1565888726125,-42,34,43,0,0,0,0,0
1565888726156.25,-41,34,43,0,0,0,0,0
1565888726187.5,-37,35,45,0,0,0,0,0
1565888726218.75,-38,35,45,0,0,0,0,0
1565888726250,-40,35,42,0,0,0,0,0
1565888726281.25,-40,36,42,0,0,0,0,0
1565888726312.5,-36,36,44,0,0,0,0,0
1565888726343.75,-36,37,44,0,0,0,0,0
1565888726375,-38,36,38,0,0,0,0,0
1565888726406.25,-38,36,39,0,0,0,0,0
1565888726437.5,-34,35,40,0,0,0,0,0
1565888726468.75,-32,35,36,0,0,0,0,0
1565888726500,-30,35,38,0,0,0,0,0
1565888726531.25,-26,35,35,0,0,0,0,0
1565888726562.5,-25,34,33,0,0,0,0,0
1565888726593.75,-21,33,28,0,0,0,0,0
1565888726625,-19,35,23,0,0,0,0,0
1565888726656.25,-29,36,15,0,0,0,0,0
1565888726687.5,-32,37,14,0,0,0,0,0
1565888726718.75,-35,39,24,0,0,0,0,0
1565888726750,-39,40,29,0,0,0,0,0
1565888726781.25,-48,41,25,0,0,0,0,0
1565888726812.5,-52,40,26,0,0,0,0,0
1565888726843.75,-47,39,34,0,0,0,0,0
1565888726875,-51,39,28,0,0,0,0,0
1565888726906.25,-49,41,24,0,0,0,0,0
1565888726937.5,-39,43,23,0,0,0,0,0
1565888726968.75,-36,45,22,0,0,0,0,0
1565888727000,-40,49,21,0,0,0,0,0
1565888727031.25,-41,50,21,0,0,0,0,0
1565888727062.5,-41,49,22,0,0,0,0,0
1565888727093.75,-41,49,22,0,0,0,0,0
1565888727125,-40,51,19,0,0,0,0,0
1565888727156.25,-40,51,18,0,0,0,0,0
1565888727187.5,-40,50,17,0,0,0,0,0
1565888727218.75,-40,50,16,0,0,0,0,0
1565888727250,-38,49,17,0,0,0,0,0
1565888727281.25,-38,48,17,0,0,0,0,0
1565888727312.5,-38,48,19,0,0,0,0,0
1565888727343.75,-38,49,16,0,0,0,0,0
1565888727375,-37,50,16,0,0,0,0,0
1565888727406.25,-36,50,17,0,0,0,0,0
1565888727437.5,-36,51,17,0,0,0,0,0
1565888727468.75,-35,52,16,0,0,0,0,0
1565888727500,-34,52,17,0,0,0,0,0
1565888727531.25,-35,53,17,0,0,0,0,0
1565888727562.5,-35,54,16,0,0,0,0,0
1565888727593.75,-35,54,15,0,0,0,0,0
1565888727625,-34,53,15,0,0,0,0,0
1565888727656.25,-33,54,14,0,0,0,0,0
1565888727687.5,-32,54,15,0,0,0,0,0
1565888727718.75,-32,55,15,0,0,0,0,0
1565888727750,-33,55,15,0,0,0,0,0
1565888727781.25,-33,55,15,0,0,0,0,0
1565888727812.5,-32,55,15,0,0,0,0,0
1565888727843.75,-32,55,15,0,0,0,0,0
1565888727875,-32,55,15,0,0,0,0,0
1565888727906.25,-32,54,16,0,0,0,0,0
1565888727937.5,-31,54,16,0,0,0,0,0
1565888727968.75,-32,55,16,0,0,0,0,0
1565888728000,-33,54,17,0,0,0,0,0
1565888728031.25,-34,53,17,0,0,0,0,0
1565888728062.5,-33,54,16,0,0,0,0,0
1565888728093.75,-37,52,17,0,0,0,0,0
1565888728125,-39,52,18,0,0,0,0,0
1565888728156.25,-41,50,17,0,0,0,0,0
1565888728187.5,-42,49,17,0,0,0,0,0
1565888728218.75,-43,45,16,0,0,0,0,0
1565888728250,-43,44,16,0,0,0,0,0
1565888728281.25,-45,43,16,0,0,0,0,0
1565888728312.5,-45,42,17,0,0,0,0,0
1565888728343.75,-45,42,18,0,0,0,0,0
1565888728375,-45,42,19,0,0,0,0,0
1565888728406.25,-46,39,20,0,0,0,0,0
1565888728437.5,-45,38,20,0,0,0,0,0
1565888728468.75,-44,36,21,0,0,0,0,0
1565888728500,-41,35,24,0,0,0,0,0
1565888728531.25,-40,34,26,0,0,0,0,0
1565888728562.5,-39,31,27,0,0,0,0,0
1565888728593.75,-38,29,27,0,0,0,0,0
1565888728625,-40,27,25,0,0,0,0,0
1565888728656.25,-40,25,23,0,0,0,0,0
1565888728687.5,-41,24,23,0,0,0,0,0
1565888728718.75,-41,24,24,0,0,0,0,0
1565888728750,-41,24,26,0,0,0,0,0
1565888728781.25,-43,26,27,0,0,0,0,0
1565888728812.5,-50,27,27,0,0,0,0,0
1565888728843.75,-50,27,28,0,0,0,0,0
1565888728875,-45,31,32,0,0,0,0,0
1565888728906.25,-50,34,28,0,0,0,0,0
1565888728937.5,-52,35,26,0,0,0,0,0
1565888728968.75,-53,39,28,0,0,0,0,0
1565888729000,-50,39,31,0,0,0,0,0
1565888729031.25,-51,36,35,0,0,0,0,0
1565888729062.5,-53,38,35,0,0,0,0,0
1565888729093.75,-61,36,36,0,0,0,0,0
1565888729125,-66,34,34,0,0,0,0,0
1565888729156.25,-77,26,23,0,0,0,0,0
1565888729187.5,-78,24,17,0,0,0,0,0
1565888729218.75,-72,19,9,0,0,0,0,0
1565888729250,-67,16,4,0,0,0,0,0
1565888729281.25,-61,16,2,0,0,0,0,0
1565888729312.5,-60,16,0,0,0,0,0,0
1565888729343.75,-60,17,-2,0,0,0,0,0
1565888729375,-57,15,-3,0,0,0,0,0
1565888729406.25,-53,15,-2,0,0,0,0,0
1565888729437.5,-47,15,3,0,0,0,0,0
1565888729468.75,-46,15,6,0,0,0,0,0
1565888729500,-51,15,9,0,0,0,0,0
1565888729531.25,-54,15,10,0,0,0,0,0
1565888729562.5,-64,14,8,0,0,0,0,0
1565888729593.75,-68,13,6,0,0,0,0,0
1565888729625,-71,11,2,0,0,0,0,0
1565888729656.25,-69,10,3,0,0,0,0,0
1565888729687.5,-63,9,6,0,0,0,0,0
1565888729718.75,-69,10,6,0,0,0,0,0
1565888729750,-75,10,4,0,0,0,0,0
1565888729781.25,-75,9,4,0,0,0,0,0
1565888729812.5,-74,10,6,0,0,0,0,0
1565888729843.75,-73,6,10,0,0,0,0,0
1565888729875,-71,5,12,0,0,0,0,0
1565888729906.25,-69,5,14,0,0,0,0,0
1565888729937.5,-67,5,16,0,0,0,0,0
1565888729968.75,-61,3,14,0,0,0,0,0
1565888730000,-56,1,13,0,0,0,0,0
1565888730031.25,-53,-1,12,0,0,0,0,0
1565888730062.5,-53,-2,11,0,0,0,0,0
1565888730093.75,-45,-4,15,0,0,0,0,0
1565888730125,-53,-10,18,0,0,0,0,0
1565888730156.25,-55,-13,21,0,0,0,0,0
1565888730187.5,-56,-17,27,0,0,0,0,0
1565888730218.75,-57,-17,28,0,0,0,0,0
1565888730250,-54,-13,29,0,0,0,0,0
1565888730281.25,-55,-11,28,0,0,0,0,0
1565888730312.5,-60,-6,22,0,0,0,0,0
1565888730343.75,-60,-6,20,0,0,0,0,0
1565888730375,-56,-1,19,0,0,0,0,0
1565888730406.25,-54,0,20,0,0,0,0,0
1565888730437.5,-54,1,23,0,0,0,0,0
1565888730468.75,-56,1,23,0,0,0,0,0
1565888730500,-61,4,21,0,0,0,0,0
1565888730531.25,-70,4,18,0,0,0,0,0
1565888730562.5,-73,3,17,0,0,0,0,0
1565888730593.75,-76,-1,18,0,0,0,0,0
1565888730625,-73,-3,20,0,0,0,0,0
1565888730656.25,-57,-4,20,0,0,0,0,0
1565888730687.5,-51,0,19,0,0,0,0,0
1565888730718.75,-48,3,17,0,0,0,0,0
1565888730750,-48,4,18,0,0,0,0,0
1565888730781.25,-47,4,20,0,0,0,0,0
1565888730812.5,-49,2,21,0,0,0,0,0
1565888730843.75,-50,3,26,0,0,0,0,0
1565888730875,-48,3,27,0,0,0,0,0
1565888730906.25,-45,5,29,0,0,0,0,0
1565888730937.5,-50,4,26,0,0,0,0,0
1565888730968.75,-51,3,24,0,0,0,0,0
1565888731000,-52,-2,25,0,0,0,0,0
1565888731031.25,-57,-6,25,0,0,0,0,0
1565888731062.5,-59,-17,24,0,0,0,0,0
1565888731093.75,-54,-18,23,0,0,0,0,0
1565888731125,-49,-22,25,0,0,0,0,0
1565888731156.25,-45,-25,30,0,0,0,0,0
1565888731187.5,-33,-34,34,0,0,0,0,0
1565888731218.75,-29,-38,34,0,0,0,0,0
1565888731250,-30,-48,23,0,0,0,0,0
1565888731281.25,-20,-52,20,0,0,0,0,0
1565888731312.5,-18,-57,23,0,0,0,0,0
1565888731343.75,-11,-62,18,0,0,0,0,0
1565888731375,-58,-91,15,0,0,0,0,0
1565888731406.25,-59,-85,77,0,0,0,0,0
1565888731437.5,-11,-83,116,0,0,0,0,0
1565888731468.75,-12,-70,27,0,0,0,0,0
1565888731500,-17,-63,30,0,0,0,0,0
1565888731531.25,-26,-55,29,0,0,0,0,0
1565888731562.5,-27,-40,43,0,0,0,0,0
1565888731593.75,-29,-39,40,0,0,0,0,0
1565888731625,-28,-43,36,0,0,0,0,0
1565888731656.25,-28,-44,36,0,0,0,0,0
1565888731687.5,-30,-43,35,0,0,0,0,0
1565888731718.75,-31,-42,37,0,0,0,0,0
1565888731750,-30,-42,38,0,0,0,0,0
1565888731781.25,-28,-41,39,0,0,0,0,0
1565888731812.5,-32,-40,37,0,0,0,0,0
1565888731843.75,-34,-40,35,0,0,0,0,0
1565888731875,-29,-40,39,0,0,0,0,0
1565888731906.25,-28,-41,38,0,0,0,0,0
1565888731937.5,-36,-37,36,0,0,0,0,0
1565888731968.75,-38,-35,39,0,0,0,0,0
1565888732000,-30,-34,44,0,0,0,0,0
1565888732031.25,-33,-34,39,0,0,0,0,0
1565888732062.5,-32,-23,49,0,0,0,0,0
1565888732093.75,-51,-34,22,0,0,0,0,0
1565888732125,-60,-41,12,0,0,0,0,0
1565888732156.25,-43,-24,37,0,0,0,0,0
1565888732187.5,-53,-24,29,0,0,0,0,0
1565888732218.75,-58,-20,27,0,0,0,0,0
1565888732250,-57,-16,28,0,0,0,0,0
1565888732281.25,-57,-11,34,0,0,0,0,0
1565888732312.5,-59,-11,32,0,0,0,0,0
1565888732343.75,-63,-8,32,0,0,0,0,0
1565888732375,-58,-8,36,0,0,0,0,0
1565888732406.25,-40,-13,43,0,0,0,0,0
1565888732437.5,-33,-14,47,0,0,0,0,0
1565888732468.75,-27,-12,51,0,0,0,0,0
1565888732500,-38,-16,50,0,0,0,0,0
1565888732531.25,-39,-17,49,0,0,0,0,0
1565888732562.5,-31,-12,56,0,0,0,0,0
1565888732593.75,-22,-7,60,0,0,0,0,0
1565888732625,-28,-2,59,0,0,0,0,0
1565888732656.25,-29,-1,55,0,0,0,0,0
1565888732687.5,-34,-4,52,0,0,0,0,0
1565888732718.75,-35,-6,54,0,0,0,0,0
1565888732750,-34,-4,54,0,0,0,0,0
1565888732781.25,-33,-5,54,0,0,0,0,0
1565888732812.5,-27,-4,58,0,0,0,0,0
1565888732843.75,-23,-3,58,0,0,0,0,0
1565888732875,-22,-1,60,0,0,0,0,0
1565888732906.25,-21,-3,61,0,0,0,0,0
1565888732937.5,-19,-5,60,0,0,0,0,0
1565888732968.75,-22,-6,60,0,0,0,0,0
1565888733000,-26,-9,59,0,0,0,0,0
1565888733031.25,-32,-9,53,0,0,0,0,0
1565888733062.5,-34,-9,52,0,0,0,0,0
1565888733093.75,-34,-10,53,0,0,0,0,0
1565888733125,-33,-8,53,0,0,0,0,0
1565888733156.25,-32,-8,55,0,0,0,0,0
1565888733187.5,-32,-8,55,0,0,0,0,0
1565888733218.75,-33,-7,53,0,0,0,0,0
1565888733250,-34,-8,52,0,0,0,0,0
1565888733281.25,-36,-10,52,0,0,0,0,0
1565888733312.5,-37,-10,51,0,0,0,0,0
1565888733343.75,-37,-9,51,0,0,0,0,0
1565888733375,-37,-9,51,0,0,0,0,0
1565888733406.25,-38,-9,51,0,0,0,0,0
1565888733437.5,-38,-8,50,0,0,0,0,0
1565888733468.75,-38,-9,50,0,0,0,0,0
1565888733500,-37,-9,50,0,0,0,0,0
1565888733531.25,-38,-8,49,0,0,0,0,0
1565888733562.5,-42,-8,47,0,0,0,0,0
1565888733593.75,-44,-9,46,0,0,0,0,0
1565888733625,-43,-7,46,0,0,0,0,0
1565888733656.25,-44,-8,46,0,0,0,0,0
1565888733687.5,-44,-9,45,0,0,0,0,0
1565888733718.75,-44,-9,44,0,0,0,0,0
1565888733750,-45,-8,44,0,0,0,0,0
1565888733781.25,-46,-10,43,0,0,0,0,0
1565888733812.5,-44,-9,44,0,0,0,0,0
1565888733843.75,-46,-9,43,0,0,0,0,0
1565888733875,-47,-10,41,0,0,0,0,0
1565888733906.25,-50,-9,40,0,0,0,0,0
1565888733937.5,-50,-8,40,0,0,0,0,0
1565888733968.75,-49,-9,40,0,0,0,0,0
1565888734000,-48,-10,40,0,0,0,0,0
1565888734031.25,-48,-9,41,0,0,0,0,0
1565888734062.5,-49,-9,40,0,0,0,0,0
1565888734093.75,-49,-12,39,0,0,0,0,0
1565888734125,-48,-12,40,0,0,0,0,0
1565888734156.25,-49,-11,40,0,0,0,0,0
1565888734187.5,-48,-12,39,0,0,0,0,0
1565888734218.75,-49,-12,39,0,0,0,0,0
1565888734250,-45,-11,42,0,0,0,0,0
1565888734281.25,-46,-11,42,0,0,0,0,0
1565888734312.5,-46,-12,42,0,0,0,0,0
1565888734343.75,-47,-12,41,0,0,0,0,0
1565888734375,-47,-12,42,0,0,0,0,0
1565888734406.25,-46,-12,42,0,0,0,0,0
1565888734437.5,-46,-11,41,0,0,0,0,0
1565888734468.75,-46,-10,41,0,0,0,0,0
1565888734500,-50,-9,40,0,0,0,0,0
1565888734531.25,-46,-9,41,0,0,0,0,0
1565888734562.5,-46,-10,42,0,0,0,0,0
1565888734593.75,-46,-11,43,0,0,0,0,0
1565888734625,-45,-10,43,0,0,0,0,0
1565888734656.25,-45,-9,44,0,0,0,0,0
1565888734687.5,-45,-9,44,0,0,0,0,0
1565888734718.75,-45,-8,44,0,0,0,0,0
1565888734750,-45,-8,44,0,0,0,0,0
1565888734781.25,-44,-9,44,0,0,0,0,0
1565888734812.5,-44,-9,44,0,0,0,0,0
1565888734843.75,-43,-9,46,0,0,0,0,0
1565888734875,-43,-9,46,0,0,0,0,0
1565888734906.25,-43,-9,45,0,0,0,0,0
1565888734937.5,-44,-9,45,0,0,0,0,0
1565888734968.75,-44,-9,45,0,0,0,0,0
1565888735000,-43,-9,46,0,0,0,0,0
1565888735031.25,-43,-10,46,0,0,0,0,0
1565888735062.5,-42,-10,46,0,0,0,0,0
1565888735093.75,-42,-10,46,0,0,0,0,0
1565888735125,-43,-9,46,0,0,0,0,0
1565888735156.25,-42,-10,46,0,0,0,0,0
1565888735187.5,-41,-9,47,0,0,0,0,0
1565888735218.75,-41,-10,47,0,0,0,0,0
1565888735250,-41,-10,47,0,0,0,0,0
1565888735281.25,-42,-10,46,0,0,0,0,0
1565888735312.5,-41,-10,46,0,0,0,0,0
1565888735343.75,-42,-9,47,0,0,0,0,0
1565888735375,-42,-9,47,0,0,0,0,0
1565888735406.25,-41,-10,47,0,0,0,0,0
1565888735437.5,-42,-10,47,0,0,0,0,0
1565888735468.75,-42,-9,47,0,0,0,0,0
1565888735500,-42,-9,47,0,0,0,0,0
1565888735531.25,-43,-10,46,0,0,0,0,0
1565888735562.5,-42,-10,47,0,0,0,0,0
1565888735593.75,-41,-9,47,0,0,0,0,0
1565888735625,-42,-9,47,0,0,0,0,0
1565888735656.25,-42,-10,47,0,0,0,0,0
1565888735687.5,-42,-10,47,0,0,0,0,0
1565888735718.75,-41,-9,47,0,0,0,0,0
1565888735750,-42,-10,46,0,0,0,0,0
1565888735781.25,-42,-10,46,0,0,0,0,0
1565888735812.5,-42,-9,47,0,0,0,0,0
1565888735843.75,-41,-10,47,0,0,0,0,0
1565888735875,-42,-9,47,0,0,0,0,0
1565888735906.25,-42,-9,47,0,0,0,0,0
1565888735937.5,-41,-10,47,0,0,0,0,0
1565888735968.75,-42,-10,47,0,0,0,0,0
1565888736000,-41,-9,47,0,0,0,0,0
1565888736031.25,-41,-10,47,0,0,0,0,0
1565888736062.5,-42,-10,47,0,0,0,0,0
1565888736093.75,-42,-10,47,0,0,0,0,0
1565888736125,-41,-9,47,0,0,0,0,0
1565888736156.25,-42,-10,47,0,0,0,0,0
1565888736187.5,-41,-9,47,0,0,0,0,0
1565888736218.75,-42,-9,47,0,0,0,0,0
1565888736250,-41,-9,47,0,0,0,0,0
1565888736281.25,-42,-9,47,0,0,0,0,0
1565888736312.5,-42,-10,47,0,0,0,0,0
1565888736343.75,-41,-9,47,0,0,0,0,0
1565888736375,-42,-10,47,0,0,0,0,0
1565888736406.25,-41,-9,47,0,0,0,0,0
1565888736437.5,-41,-9,47,0,0,0,0,0
1565888736468.75,-41,-10,47,0,0,0,0,0
1565888736500,-41,-9,47,0,0,0,0,0
1565888736531.25,-41,-10,47,0,0,0,0,0
1565888736562.5,-41,-9,47,0,0,0,0,0
1565888736593.75,-41,-10,47,0,0,0,0,0
1565888736625,-41,-9,47,0,0,0,0,0
1565888736656.25,-41,-9,47,0,0,0,0,0
1565888736687.5,-41,-9,47,0,0,0,0,0
1565888736718.75,-42,-10,47,0,0,0,0,0
1565888736750,-41,-9,47,0,0,0,0,0
1565888736781.25,-42,-10,46,0,0,0,0,0
1565888736812.5,-41,-10,47,0,0,0,0,0
1565888736843.75,-41,-10,47,0,0,0,0,0
1565888736875,-41,-10,47,0,0,0,0,0
1565888736906.25,-41,-10,47,0,0,0,0,0
1565888736937.5,-41,-10,47,0,0,0,0,0
1565888736968.75,-41,-10,47,0,0,0,0,0
1565888737000,-41,-9,47,0,0,0,0,0
1565888737031.25,-43,-11,46,0,0,0,0,0
1565888737062.5,-43,-11,46,0,0,0,0,0
1565888737093.75,-40,-10,48,0,0,0,0,0
1565888737125,-41,-11,48,0,0,0,0,0
1565888737156.25,-38,-9,50,0,0,0,0,0
1565888737187.5,-40,-9,49,0,0,0,0,0
1565888737218.75,-37,-6,52,0,0,0,0,0
1565888737250,-39,-6,50,0,0,0,0,0
1565888737281.25,-40,-11,47,0,0,0,0,0
1565888737312.5,-42,-10,47,0,0,0,0,0
1565888737343.75,-41,-9,48,0,0,0,0,0
1565888737375,-41,-11,49,0,0,0,0,0
1565888737406.25,-40,-12,51,0,0,0,0,0
1565888737437.5,-38,-8,48,0,0,0,0,0
1565888737468.75,-37,-7,48,0,0,0,0,0
1565888737500,-40,-5,48,0,0,0,0,0
1565888737531.25,-40,-7,45,0,0,0,0,0
1565888737562.5,-45,-11,45,0,0,0,0,0
1565888737593.75,-41,-11,46,0,0,0,0,0
1565888737625,-39,-9,50,0,0,0,0,0
1565888737656.25,-39,-9,49,0,0,0,0,0
1565888737687.5,-40,-9,48,0,0,0,0,0
1565888737718.75,-41,-8,48,0,0,0,0,0
1565888737750,-41,-9,48,0,0,0,0,0
1565888737781.25,-39,-10,49,0,0,0,0,0
1565888737812.5,-40,-10,48,0,0,0,0,0
1565888737843.75,-40,-8,49,0,0,0,0,0
1565888737875,-40,-8,49,0,0,0,0,0
1565888737906.25,-37,-9,50,0,0,0,0,0
1565888737937.5,-38,-9,50,0,0,0,0,0
1565888737968.75,-38,-10,51,0,0,0,0,0
1565888738000,-38,-11,51,0,0,0,0,0
1565888738031.25,-36,-10,51,0,0,0,0,0
1565888738062.5,-35,-9,53,0,0,0,0,0
1565888738093.75,-36,-10,53,0,0,0,0,0
1565888738125,-34,-10,52,0,0,0,0,0
1565888738156.25,-33,-9,53,0,0,0,0,0
1565888738187.5,-28,-10,57,0,0,0,0,0
1565888738218.75,-27,-11,57,0,0,0,0,0
1565888738250,-26,-11,56,0,0,0,0,0
1565888738281.25,-24,-10,58,0,0,0,0,0
1565888738312.5,-18,-8,60,0,0,0,0,0
1565888738343.75,-16,-8,61,0,0,0,0,0
1565888738375,-16,-9,61,0,0,0,0,0
1565888738406.25,-17,-9,61,0,0,0,0,0
1565888738437.5,-18,-9,60,0,0,0,0,0
1565888738468.75,-17,-10,60,0,0,0,0,0
1565888738500,-18,-10,61,0,0,0,0,0
1565888738531.25,-17,-10,61,0,0,0,0,0
1565888738562.5,-15,-8,61,0,0,0,0,0
1565888738593.75,-14,-9,62,0,0,0,0,0
1565888738625,-14,-9,62,0,0,0,0,0
1565888738656.25,-17,-10,60,0,0,0,0,0
1565888738687.5,-18,-9,61,0,0,0,0,0
1565888738718.75,-17,-9,61,0,0,0,0,0
1565888738750,-17,-9,61,0,0,0,0,0
1565888738781.25,-17,-9,61,0,0,0,0,0
1565888738812.5,-16,-10,61,0,0,0,0,0
1565888738843.75,-18,-10,60,0,0,0,0,0
1565888738875,-19,-10,60,0,0,0,0,0
1565888738906.25,-18,-9,61,0,0,0,0,0
1565888738937.5,-18,-9,61,0,0,0,0,0
1565888738968.75,-18,-8,60,0,0,0,0,0
1565888739000,-17,-9,61,0,0,0,0,0
1565888739031.25,-17,-9,62,0,0,0,0,0
1565888739062.5,-17,-9,58,0,0,0,0,0
1565888739093.75,-18,-9,60,0,0,0,0,0
1565888739125,-17,-9,61,0,0,0,0,0
1565888739156.25,-16,-8,60,0,0,0,0,0
1565888739187.5,-15,-7,61,0,0,0,0,0
1565888739218.75,-16,-7,62,0,0,0,0,0
1565888739250,-11,-5,60,0,0,0,0,0
1565888739281.25,-8,-4,61,0,0,0,0,0
1565888739312.5,-1,-5,66,0,0,0,0,0
1565888739343.75,3,-5,67,0,0,0,0,0
1565888739375,-2,-7,70,0,0,0,0,0
1565888739406.25,-16,-11,64,0,0,0,0,0
1565888739437.5,-19,-12,57,0,0,0,0,0
1565888739468.75,-33,-14,51,0,0,0,0,0
1565888739500,-40,-12,49,0,0,0,0,0
1565888739531.25,-41,-10,49,0,0,0,0,0
1565888739562.5,-39,-10,50,0,0,0,0,0
1565888739593.75,-36,-8,52,0,0,0,0,0
1565888739625,-36,-7,53,0,0,0,0,0
1565888739656.25,-34,-8,52,0,0,0,0,0
1565888739687.5,-34,-9,53,0,0,0,0,0
1565888739718.75,-35,-9,53,0,0,0,0,0
1565888739750,-36,-9,51,0,0,0,0,0
1565888739781.25,-36,-9,51,0,0,0,0,0
1565888739812.5,-40,-9,49,0,0,0,0,0
1565888739843.75,-41,-8,48,0,0,0,0,0
1565888739875,-42,-7,48,0,0,0,0,0
1565888739906.25,-42,-7,47,0,0,0,0,0
1565888739937.5,-41,-8,48,0,0,0,0,0
1565888739968.75,-41,-8,48,0,0,0,0,0
1565888740000,-40,-8,49,0,0,0,0,0
1565888740031.25,-39,-8,49,0,0,0,0,0
1565888740062.5,-39,-9,49,0,0,0,0,0
1565888740093.75,-40,-8,49,0,0,0,0,0
1565888740125,-39,-8,49,0,0,0,0,0
1565888740156.25,-39,-8,49,0,0,0,0,0
1565888740187.5,-39,-9,49,0,0,0,0,0
1565888740218.75,-39,-8,49,0,0,0,0,0
1565888740250,-39,-8,49,0,0,0,0,0
1565888740281.25,-39,-9,49,0,0,0,0,0
1565888740312.5,-39,-9,49,0,0,0,0,0
1565888740343.75,-40,-8,49,0,0,0,0,0
1565888740375,-39,-8,49,0,0,0,0,0
1565888740406.25,-39,-8,49,0,0,0,0,0
1565888740437.5,-40,-9,49,0,0,0,0,0
1565888740468.75,-40,-9,49,0,0,0,0,0
1565888740500,-39,-8,49,0,0,0,0,0
1565888740531.25,-39,-8,49,0,0,0,0,0
1565888740562.5,-39,-8,49,0,0,0,0,0
1565888740593.75,-39,-8,49,0,0,0,0,0
1565888740625,-40,-8,49,0,0,0,0,0
1565888740656.25,-39,-8,49,0,0,0,0,0
1565888740687.5,-40,-9,49,0,0,0,0,0
1565888740718.75,-39,-8,49,0,0,0,0,0
1565888740750,-40,-8,49,0,0,0,0,0
1565888740781.25,-39,-8,49,0,0,0,0,0
1565888740812.5,-39,-8,49,0,0,0,0,0
1565888740843.75,-39,-9,49,0,0,0,0,0
1565888740875,-39,-8,49,0,0,0,0,0
1565888740906.25,-39,-8,49,0,0,0,0,0
1565888740937.5,-39,-9,49,0,0,0,0,0
1565888740968.75,-39,-8,49,0,0,0,0,0
1565888741000,-39,-9,49,0,0,0,0,0
1565888741031.25,-40,-8,49,0,0,0,0,0
1565888741062.5,-39,-9,49,0,0,0,0,0
1565888741093.75,-39,-8,49,0,0,0,0,0
1565888741125,-39,-8,49,0,0,0,0,0
1565888741156.25,-39,-8,49,0,0,0,0,0
1565888741187.5,-39,-8,49,0,0,0,0,0
1565888741218.75,-39,-9,49,0,0,0,0,0
1565888741250,-40,-8,49,0,0,0,0,0
1565888741281.25,-39,-8,49,0,0,0,0,0
1565888741312.5,-39,-8,49,0,0,0,0,0
1565888741343.75,-39,-9,49,0,0,0,0,0
1565888741375,-39,-8,49,0,0,0,0,0
1565888741406.25,-39,-8,49,0,0,0,0,0
1565888741437.5,-40,-9,49,0,0,0,0,0
1565888741468.75,-39,-9,49,0,0,0,0,0
1565888741500,-39,-8,49,0,0,0,0,0
1565888741531.25,-39,-8,49,0,0,0,0,0
1565888741562.5,-39,-9,49,0,0,0,0,0
1565888741593.75,-39,-8,49,0,0,0,0,0
1565888741625,-39,-9,49,0,0,0,0,0
1565888741656.25,-39,-9,49,0,0,0,0,0
1565888741687.5,-39,-8,49,0,0,0,0,0
1565888741718.75,-39,-8,49,0,0,0,0,0
1565888741750,-39,-9,49,0,0,0,0,0
1565888741781.25,-39,-9,49,0,0,0,0,0
1565888741812.5,-39,-9,49,0,0,0,0,0
1565888741843.75,-39,-8,49,0,0,0,0,0
1565888741875,-39,-9,49,0,0,0,0,0
1565888741906.25,-39,-8,49,0,0,0,0,0
1565888741937.5,-39,-8,49,0,0,0,0,0
1565888741968.75,-39,-9,49,0,0,0,0,0
1565888742000,-39,-9,49,0,0,0,0,0
1565888742031.25,-39,-9,49,0,0,0,0,0
1565888742062.5,-39,-9,49,0,0,0,0,0
1565888742093.75,-39,-8,49,0,0,0,0,0
1565888742125,-39,-9,49,0,0,0,0,0
1565888742156.25,-39,-9,49,0,0,0,0,0
1565888742187.5,-39,-9,49,0,0,0,0,0
1565888742218.75,-39,-9,49,0,0,0,0,0
1565888742250,-39,-9,49,0,0,0,0,0
1565888742281.25,-39,-8,49,0,0,0,0,0
1565888742312.5,-39,-9,49,0,0,0,0,0
1565888742343.75,-39,-9,49,0,0,0,0,0
1565888742375,-39,-9,49,0,0,0,0,0
1565888742406.25,-39,-9,49,0,0,0,0,0
1565888742437.5,-39,-9,49,0,0,0,0,0
1565888742468.75,-39,-9,49,0,0,0,0,0
1565888742500,-39,-9,50,0,0,0,0,0
1565888742531.25,-39,-9,50,0,0,0,0,0
1565888742562.5,-39,-9,49,0,0,0,0,0
1565888742593.75,-39,-9,49,0,0,0,0,0
1565888742625,-39,-8,50,0,0,0,0,0
1565888742656.25,-39,-9,49,0,0,0,0,0
1565888742687.5,-39,-9,50,0,0,0,0,0
1565888742718.75,-39,-9,49,0,0,0,0,0
1565888742750,-39,-8,49,0,0,0,0,0
1565888742781.25,-39,-9,49,0,0,0,0,0
1565888742812.5,-39,-9,49,0,0,0,0,0
1565888742843.75,-39,-8,49,0,0,0,0,0
1565888742875,-39,-9,49,0,0,0,0,0
1565888742906.25,-39,-9,49,0,0,0,0,0
1565888742937.5,-39,-8,49,0,0,0,0,0
1565888742968.75,-39,-9,49,0,0,0,0,0
1565888743000,-39,-9,49,0,0,0,0,0
1565888743031.25,-39,-9,49,0,0,0,0,0
1565888743062.5,-39,-9,49,0,0,0,0,0
1565888743093.75,-40,-9,49,0,0,0,0,0
1565888743125,-39,-9,49,0,0,0,0,0
1565888743156.25,-40,-9,49,0,0,0,0,0
1565888743187.5,-39,-9,49,0,0,0,0,0
1565888743218.75,-39,-9,49,0,0,0,0,0
1565888743250,-40,-9,49,0,0,0,0,0
1565888743281.25,-40,-9,49,0,0,0,0,0
1565888743312.5,-39,-9,49,0,0,0,0,0
1565888743343.75,-39,-9,49,0,0,0,0,0
1565888743375,-39,-9,49,0,0,0,0,0
1565888743406.25,-39,-9,49,0,0,0,0,0
1565888743437.5,-39,-9,49,0,0,0,0,0
1565888743468.75,-39,-8,49,0,0,0,0,0
1565888743500,-39,-9,49,0,0,0,0,0
1565888743531.25,-39,-8,49,0,0,0,0,0
1565888743562.5,-39,-9,49,0,0,0,0,0
1565888743593.75,-39,-9,49,0,0,0,0,0
1565888743625,-39,-9,49,0,0,0,0,0
1565888743656.25,-39,-9,49,0,0,0,0,0
1565888743687.5,-39,-9,49,0,0,0,0,0
1565888743718.75,-39,-8,49,0,0,0,0,0
1565888743750,-39,-9,49,0,0,0,0,0
1565888743781.25,-39,-9,49,0,0,0,0,0
1565888743812.5,-39,-9,50,0,0,0,0,0
1565888743843.75,-39,-9,49,0,0,0,0,0
1565888743875,-39,-9,49,0,0,0,0,0
1565888743906.25,-39,-9,49,0,0,0,0,0
1565888743937.5,-39,-9,49,0,0,0,0,0
1565888743968.75,-39,-9,49,0,0,0,0,0
1565888744000,-39,-9,49,0,0,0,0,0
1565888744031.25,-39,-9,49,0,0,0,0,0
1565888744062.5,-39,-8,49,0,0,0,0,0
1565888744093.75,-39,-8,50,0,0,0,0,0
1565888744125,-39,-9,49,0,0,0,0,0
1565888744156.25,-39,-9,49,0,0,0,0,0
1565888744187.5,-39,-9,50,0,0,0,0,0
1565888744218.75,-39,-9,50,0,0,0,0,0
1565888744250,-39,-9,49,0,0,0,0,0
1565888744281.25,-39,-9,50,0,0,0,0,0
1565888744312.5,-39,-9,50,0,0,0,0,0
1565888744343.75,-39,-9,49,0,0,0,0,0
1565888744375,-40,-9,49,0,0,0,0,0
1565888744406.25,-39,-9,49,0,0,0,0,0
1565888744437.5,-39,-9,49,0,0,0,0,0
1565888744468.75,-39,-9,49,0,0,0,0,0
1565888744500,-39,-8,49,0,0,0,0,0
1565888744531.25,-40,-8,49,0,0,0,0,0
1565888744562.5,-41,-8,48,0,0,0,0,0
1565888744593.75,-40,-7,48,0,0,0,0,0
1565888744625,-40,-8,49,0,0,0,0,0
1565888744656.25,-41,-8,48,0,0,0,0,0
1565888744687.5,-42,-10,46,0,0,0,0,0
1565888744718.75,-43,-11,45,0,0,0,0,0
1565888744750,-44,-10,45,0,0,0,0,0
1565888744781.25,-44,-10,44,0,0,0,0,0
1565888744812.5,-45,-9,44,0,0,0,0,0
1565888744843.75,-46,-9,44,0,0,0,0,0
1565888744875,-46,-11,42,0,0,0,0,0
1565888744906.25,-45,-12,43,0,0,0,0,0
1565888744937.5,-47,-11,42,0,0,0,0,0
1565888744968.75,-47,-11,42,0,0,0,0,0
1565888745000,-47,-11,41,0,0,0,0,0
1565888745031.25,-47,-11,41,0,0,0,0,0
1565888745062.5,-47,-11,42,0,0,0,0,0
1565888745093.75,-47,-11,41,0,0,0,0,0
1565888745125,-47,-11,42,0,0,0,0,0
1565888745156.25,-47,-12,41,0,0,0,0,0
1565888745187.5,-47,-12,41,0,0,0,0,0
1565888745218.75,-47,-12,40,0,0,0,0,0
1565888745250,-47,-12,40,0,0,0,0,0
1565888745281.25,-48,-11,40,0,0,0,0,0
1565888745312.5,-48,-11,39,0,0,0,0,0
1565888745343.75,-48,-10,40,0,0,0,0,0
1565888745375,-47,-10,41,0,0,0,0,0
1565888745406.25,-48,-10,41,0,0,0,0,0
1565888745437.5,-47,-10,41,0,0,0,0,0
1565888745468.75,-47,-10,41,0,0,0,0,0
1565888745500,-48,-9,40,0,0,0,0,0
1565888745531.25,-49,-9,41,0,0,0,0,0
1565888745562.5,-49,-11,40,0,0,0,0,0
1565888745593.75,-48,-11,39,0,0,0,0,0
1565888745625,-49,-10,39,0,0,0,0,0
1565888745656.25,-49,-10,39,0,0,0,0,0
1565888745687.5,-49,-10,39,0,0,0,0,0
1565888745718.75,-47,-10,40,0,0,0,0,0
1565888745750,-48,-11,41,0,0,0,0,0
1565888745781.25,-48,-11,41,0,0,0,0,0
1565888745812.5,-46,-10,43,0,0,0,0,0
1565888745843.75,-46,-10,43,0,0,0,0,0
1565888745875,-45,-10,44,0,0,0,0,0
1565888745906.25,-45,-8,43,0,0,0,0,0
1565888745937.5,-44,-8,42,0,0,0,0,0
1565888745968.75,-50,-7,41,0,0,0,0,0
1565888746000,-48,-9,42,0,0,0,0,0
1565888746031.25,-44,-11,44,0,0,0,0,0
1565888746062.5,-43,-10,45,0,0,0,0,0
1565888746093.75,-45,-9,43,0,0,0,0,0
1565888746125,-46,-9,43,0,0,0,0,0
1565888746156.25,-45,-9,44,0,0,0,0,0
1565888746187.5,-44,-10,44,0,0,0,0,0
1565888746218.75,-45,-10,44,0,0,0,0,0
1565888746250,-45,-10,44,0,0,0,0,0
1565888746281.25,-45,-10,44,0,0,0,0,0
1565888746312.5,-44,-10,44,0,0,0,0,0
1565888746343.75,-44,-10,45,0,0,0,0,0
1565888746375,-44,-10,45,0,0,0,0,0
1565888746406.25,-44,-10,44,0,0,0,0,0
1565888746437.5,-44,-10,45,0,0,0,0,0
1565888746468.75,-44,-10,45,0,0,0,0,0
1565888746500,-44,-10,44,0,0,0,0,0
1565888746531.25,-45,-10,44,0,0,0,0,0
1565888746562.5,-44,-10,44,0,0,0,0,0
1565888746593.75,-44,-10,44,0,0,0,0,0
1565888746625,-44,-10,44,0,0,0,0,0
1565888746656.25,-44,-10,44,0,0,0,0,0
1565888746687.5,-44,-9,44,0,0,0,0,0
1565888746718.75,-44,-9,44,0,0,0,0,0
1565888746750,-44,-9,44,0,0,0,0,0
1565888746781.25,-45,-10,44,0,0,0,0,0
1565888746812.5,-45,-9,44,0,0,0,0,0
1565888746843.75,-44,-9,44,0,0,0,0,0
1565888746875,-44,-10,44,0,0,0,0,0
1565888746906.25,-44,-10,44,0,0,0,0,0
1565888746937.5,-44,-10,44,0,0,0,0,0
1565888746968.75,-44,-10,45,0,0,0,0,0
1565888747000,-43,-10,45,0,0,0,0,0
1565888747031.25,-43,-10,45,0,0,0,0,0
1565888747062.5,-42,-10,46,0,0,0,0,0
1565888747093.75,-43,-10,46,0,0,0,0,0
1565888747125,-43,-10,46,0,0,0,0,0
1565888747156.25,-42,-9,46,0,0,0,0,0
1565888747187.5,-43,-10,46,0,0,0,0,0
1565888747218.75,-43,-10,46,0,0,0,0,0
1565888747250,-43,-10,46,0,0,0,0,0
1565888747281.25,-43,-10,46,0,0,0,0,0
1565888747312.5,-43,-10,45,0,0,0,0,0
1565888747343.75,-43,-9,46,0,0,0,0,0
1565888747375,-43,-10,46,0,0,0,0,0
1565888747406.25,-42,-10,46,0,0,0,0,0
1565888747437.5,-42,-9,46,0,0,0,0,0
1565888747468.75,-43,-10,46,0,0,0,0,0
1565888747500,-42,-10,46,0,0,0,0,0
1565888747531.25,-43,-10,46,0,0,0,0,0
1565888747562.5,-42,-10,46,0,0,0,0,0
1565888747593.75,-43,-10,46,0,0,0,0,0
1565888747625,-42,-10,46,0,0,0,0,0
1565888747656.25,-42,-10,47,0,0,0,0,0
1565888747687.5,-42,-10,46,0,0,0,0,0
1565888747718.75,-43,-10,46,0,0,0,0,0
1565888747750,-43,-10,45,0,0,0,0,0
1565888747781.25,-43,-10,46,0,0,0,0,0
1565888747812.5,-43,-9,46,0,0,0,0,0
1565888747843.75,-43,-10,46,0,0,0,0,0
1565888747875,-42,-10,46,0,0,0,0,0
1565888747906.25,-43,-10,46,0,0,0,0,0
1565888747937.5,-43,-10,46,0,0,0,0,0
1565888747968.75,-42,-10,46,0,0,0,0,0
1565888748000,-43,-10,46,0,0,0,0,0
1565888748031.25,-43,-9,46,0,0,0,0,0
1565888748062.5,-42,-10,46,0,0,0,0,0
1565888748093.75,-42,-10,46,0,0,0,0,0
1565888748125,-42,-9,46,0,0,0,0,0
1565888748156.25,-43,-10,46,0,0,0,0,0
1565888748187.5,-42,-10,46,0,0,0,0,0
1565888748218.75,-43,-9,46,0,0,0,0,0
1565888748250,-43,-10,46,0,0,0,0,0
1565888748281.25,-43,-10,46,0,0,0,0,0
1565888748312.5,-43,-10,46,0,0,0,0,0
1565888748343.75,-42,-10,46,0,0,0,0,0
1565888748375,-43,-9,46,0,0,0,0,0
1565888748406.25,-43,-10,46,0,0,0,0,0
1565888748437.5,-43,-10,46,0,0,0,0,0
1565888748468.75,-42,-10,46,0,0,0,0,0
1565888748500,-43,-10,46,0,0,0,0,0
1565888748531.25,-42,-10,46,0,0,0,0,0
1565888748562.5,-42,-10,46,0,0,0,0,0
1565888748593.75,-43,-9,46,0,0,0,0,0
1565888748625,-42,-10,46,0,0,0,0,0
1565888748656.25,-43,-10,46,0,0,0,0,0
1565888748687.5,-41,-10,47,0,0,0,0,0
1565888748718.75,-42,-10,47,0,0,0,0,0
1565888748750,-41,-8,46,0,0,0,0,0
1565888748781.25,-43,-9,46,0,0,0,0,0
1565888748812.5,-40,-12,48,0,0,0,0,0
1565888748843.75,-40,-12,48,0,0,0,0,0
1565888748875,-43,-10,45,0,0,0,0,0
1565888748906.25,-44,-9,44,0,0,0,0,0
1565888748937.5,-45,-9,43,0,0,0,0,0
1565888748968.75,-47,-9,43,0,0,0,0,0
1565888749000,-46,-9,44,0,0,0,0,0
1565888749031.25,-42,-9,44,0,0,0,0,0
1565888749062.5,-42,-8,44,0,0,0,0,0
1565888749093.75,-45,-9,44,0,0,0,0,0
1565888749125,-44,-8,45,0,0,0,0,0
1565888749156.25,-45,-9,44,0,0,0,0,0
1565888749187.5,-46,-9,44,0,0,0,0,0
1565888749218.75,-45,-9,43,0,0,0,0,0
1565888749250,-46,-9,44,0,0,0,0,0
1565888749281.25,-43,-9,46,0,0,0,0,0
1565888749312.5,-42,-9,46,0,0,0,0,0
1565888749343.75,-41,-9,48,0,0,0,0,0
1565888749375,-39,-10,49,0,0,0,0,0
1565888749406.25,-35,-10,52,0,0,0,0,0
1565888749437.5,-36,-10,52,0,0,0,0,0
1565888749468.75,-35,-10,53,0,0,0,0,0
1565888749500,-32,-10,55,0,0,0,0,0
1565888749531.25,-31,-9,55,0,0,0,0,0
1565888749562.5,-29,-10,56,0,0,0,0,0
1565888749593.75,-26,-9,57,0,0,0,0,0
1565888749625,-20,-9,60,0,0,0,0,0
1565888749656.25,-20,-8,60,0,0,0,0,0
1565888749687.5,-18,-9,60,0,0,0,0,0
1565888749718.75,-17,-9,61,0,0,0,0,0
1565888749750,-15,-9,61,0,0,0,0,0
1565888749781.25,-14,-9,61,0,0,0,0,0
1565888749812.5,-7,-7,64,0,0,0,0,0
1565888749843.75,-14,-8,61,0,0,0,0,0
1565888749875,-17,-10,61,0,0,0,0,0
1565888749906.25,-19,-9,60,0,0,0,0,0
1565888749937.5,-18,-8,60,0,0,0,0,0
1565888749968.75,-16,-8,61,0,0,0,0,0
1565888750000,-14,-8,62,0,0,0,0,0
1565888750031.25,-12,-6,62,0,0,0,0,0
1565888750062.5,-11,-5,63,0,0,0,0,0
1565888750093.75,-9,-5,63,0,0,0,0,0
1565888750125,-8,-5,63,0,0,0,0,0
1565888750156.25,-8,-5,63,0,0,0,0,0
1565888750187.5,-9,-5,63,0,0,0,0,0
1565888750218.75,-8,-5,64,0,0,0,0,0
1565888750250,-7,-7,63,0,0,0,0,0
1565888750281.25,-8,-7,63,0,0,0,0,0
1565888750312.5,-9,-7,63,0,0,0,0,0
1565888750343.75,-8,-6,63,0,0,0,0,0
1565888750375,-8,-6,63,0,0,0,0,0
1565888750406.25,-8,-6,63,0,0,0,0,0
1565888750437.5,-9,-6,63,0,0,0,0,0
1565888750468.75,-9,-7,63,0,0,0,0,0
1565888750500,-10,-7,63,0,0,0,0,0
1565888750531.25,-10,-7,63,0,0,0,0,0
1565888750562.5,-9,-7,63,0,0,0,0,0
1565888750593.75,-10,-7,62,0,0,0,0,0
1565888750625,-10,-7,63,0,0,0,0,0
1565888750656.25,-11,-7,63,0,0,0,0,0
1565888750687.5,-11,-7,62,0,0,0,0,0
1565888750718.75,-9,-7,63,0,0,0,0,0
1565888750750,-9,-7,63,0,0,0,0,0
1565888750781.25,-10,-8,62,0,0,0,0,0
1565888750812.5,-10,-8,62,0,0,0,0,0
1565888750843.75,-12,-7,62,0,0,0,0,0
1565888750875,-11,-7,62,0,0,0,0,0
1565888750906.25,-11,-7,62,0,0,0,0,0
1565888750937.5,-13,-8,61,0,0,0,0,0
1565888750968.75,-11,-7,62,0,0,0,0,0
1565888751000,-11,-7,62,0,0,0,0,0
1565888751031.25,-13,-7,62,0,0,0,0,0
1565888751062.5,-11,-7,62,0,0,0,0,0
1565888751093.75,-13,-8,62,0,0,0,0,0
1565888751125,-16,-9,61,0,0,0,0,0
1565888751156.25,-16,-8,61,0,0,0,0,0
1565888751187.5,-14,-8,62,0,0,0,0,0
1565888751218.75,-15,-9,62,0,0,0,0,0
1565888751250,-14,-7,62,0,0,0,0,0
1565888751281.25,-13,-7,62,0,0,0,0,0
1565888751312.5,-16,-9,62,0,0,0,0,0
1565888751343.75,-17,-8,61,0,0,0,0,0
1565888751375,-16,-7,61,0,0,0,0,0
1565888751406.25,-15,-8,62,0,0,0,0,0
1565888751437.5,-14,-7,62,0,0,0,0,0
1565888751468.75,-15,-8,62,0,0,0,0,0
1565888751500,-15,-8,61,0,0,0,0,0
1565888751531.25,-14,-8,62,0,0,0,0,0
1565888751562.5,-13,-8,62,0,0,0,0,0
1565888751593.75,-13,-9,61,0,0,0,0,0
1565888751625,-12,-9,61,0,0,0,0,0
1565888751656.25,-12,-11,63,0,0,0,0,0
1565888751687.5,-11,-12,63,0,0,0,0,0
1565888751718.75,-12,-10,61,0,0,0,0,0
1565888751750,-11,-10,62,0,0,0,0,0
1565888751781.25,-6,-9,62,0,0,0,0,0
1565888751812.5,-3,-8,63,0,0,0,0,0
1565888751843.75,-5,-8,61,0,0,0,0,0
1565888751875,-11,-8,64,0,0,0,0,0
1565888751906.25,-18,-8,65,0,0,0,0,0
1565888751937.5,-28,-11,57,0,0,0,0,0
1565888751968.75,-28,-11,55,0,0,0,0,0
1565888752000,-33,-11,55,0,0,0,0,0
1565888752031.25,-34,-10,54,0,0,0,0,0
1565888752062.5,-32,-8,55,0,0,0,0,0
1565888752093.75,-33,-7,55,0,0,0,0,0
1565888752125,-31,-8,55,0,0,0,0,0
1565888752156.25,-30,-9,56,0,0,0,0,0
1565888752187.5,-29,-9,56,0,0,0,0,0
1565888752218.75,-30,-9,56,0,0,0,0,0
1565888752250,-30,-9,55,0,0,0,0,0
1565888752281.25,-29,-9,56,0,0,0,0,0
1565888752312.5,-27,-8,57,0,0,0,0,0
1565888752343.75,-27,-8,57,0,0,0,0,0
1565888752375,-28,-8,56,0,0,0,0,0
1565888752406.25,-24,-8,58,0,0,0,0,0
1565888752437.5,-25,-8,58,0,0,0,0,0
1565888752468.75,-27,-8,57,0,0,0,0,0
1565888752500,-26,-8,58,0,0,0,0,0
1565888752531.25,-25,-8,58,0,0,0,0,0
1565888752562.5,-24,-8,58,0,0,0,0,0
1565888752593.75,-25,-8,58,0,0,0,0,0
1565888752625,-27,-8,57,0,0,0,0,0
1565888752656.25,-24,-7,58,0,0,0,0,0
1565888752687.5,-28,-8,57,0,0,0,0,0
1565888752718.75,-25,-7,58,0,0,0,0,0
1565888752750,-31,-8,55,0,0,0,0,0
1565888752781.25,-34,-9,55,0,0,0,0,0
1565888752812.5,-35,-9,52,0,0,0,0,0
1565888752843.75,-37,-10,51,0,0,0,0,0
1565888752875,-39,-10,49,0,0,0,0,0
1565888752906.25,-40,-11,49,0,0,0,0,0
1565888752937.5,-41,-10,47,0,0,0,0,0
1565888752968.75,-39,-9,48,0,0,0,0,0
1565888753000,-45,-10,45,0,0,0,0,0
1565888753031.25,-44,-10,45,0,0,0,0,0
1565888753062.5,-43,-9,45,0,0,0,0,0
1565888753093.75,-43,-9,46,0,0,0,0,0
1565888753125,-46,-9,45,0,0,0,0,0
1565888753156.25,-46,-8,43,0,0,0,0,0
1565888753187.5,-45,-7,44,0,0,0,0,0
1565888753218.75,-48,-10,42,0,0,0,0,0
1565888753250,-47,-11,42,0,0,0,0,0
1565888753281.25,-47,-10,42,0,0,0,0,0
1565888753312.5,-46,-11,43,0,0,0,0,0
1565888753343.75,-43,-11,46,0,0,0,0,0
1565888753375,-40,-9,49,0,0,0,0,0
1565888753406.25,-37,-7,51,0,0,0,0,0
1565888753437.5,-36,-8,52,0,0,0,0,0
1565888753468.75,-36,-7,53,0,0,0,0,0
1565888753500,-32,-5,54,0,0,0,0,0
1565888753531.25,-31,-5,54,0,0,0,0,0
1565888753562.5,-33,-4,53,0,0,0,0,0
1565888753593.75,-36,-5,52,0,0,0,0,0
1565888753625,-37,-3,51,0,0,0,0,0
1565888753656.25,-37,-3,49,0,0,0,0,0
1565888753687.5,-34,-6,50,0,0,0,0,0
1565888753718.75,-42,-10,49,0,0,0,0,0
1565888753750,-54,-18,42,0,0,0,0,0
1565888753781.25,-53,-20,41,0,0,0,0,0
1565888753812.5,-48,-22,48,0,0,0,0,0
1565888753843.75,-28,-12,57,0,0,0,0,0
1565888753875,-24,-10,55,0,0,0,0,0
1565888753906.25,-22,-8,55,0,0,0,0,0
1565888753937.5,-19,-9,60,0,0,0,0,0
1565888753968.75,-16,-5,64,0,0,0,0,0
1565888754000,-20,-4,61,0,0,0,0,0
1565888754031.25,-24,-5,57,0,0,0,0,0
1565888754062.5,-26,-6,57,0,0,0,0,0
1565888754093.75,-31,-13,58,0,0,0,0,0
1565888754125,-29,-14,56,0,0,0,0,0
1565888754156.25,-27,-13,58,0,0,0,0,0
1565888754187.5,-30,-13,58,0,0,0,0,0
1565888754218.75,-27,-11,57,0,0,0,0,0
1565888754250,-25,-8,56,0,0,0,0,0
1565888754281.25,-25,-7,57,0,0,0,0,0
1565888754312.5,-24,-6,58,0,0,0,0,0
1565888754343.75,-24,-5,58,0,0,0,0,0
1565888754375,-25,-7,58,0,0,0,0,0
1565888754406.25,-29,-9,57,0,0,0,0,0
1565888754437.5,-31,-9,53,0,0,0,0,0
1565888754468.75,-30,-9,54,0,0,0,0,0
1565888754500,-31,-11,56,0,0,0,0,0
1565888754531.25,-31,-12,55,0,0,0,0,0
1565888754562.5,-33,-12,54,0,0,0,0,0
1565888754593.75,-33,-13,55,0,0,0,0,0
1565888754625,-30,-13,56,0,0,0,0,0
1565888754656.25,-27,-13,55,0,0,0,0,0
1565888754687.5,-30,-15,54,0,0,0,0,0
1565888754718.75,-28,-13,55,0,0,0,0,0
1565888754750,-29,-11,55,0,0,0,0,0
1565888754781.25,-32,-12,53,0,0,0,0,0
1565888754812.5,-33,-11,53,0,0,0,0,0
1565888754843.75,-30,-9,56,0,0,0,0,0
1565888754875,-29,-8,58,0,0,0,0,0
1565888754906.25,-30,-9,57,0,0,0,0,0
1565888754937.5,-28,-7,53,0,0,0,0,0
1565888754968.75,-30,-6,59,0,0,0,0,0
1565888755000,-23,-3,58,0,0,0,0,0
1565888755031.25,-21,-2,60,0,0,0,0,0
1565888755062.5,-19,-3,61,0,0,0,0,0
1565888755093.75,-14,-8,63,0,0,0,0,0
1565888755125,-16,-9,59,0,0,0,0,0
1565888755156.25,-16,-10,62,0,0,0,0,0
1565888755187.5,-17,-6,62,0,0,0,0,0
1565888755218.75,-19,-4,60,0,0,0,0,0
1565888755250,-18,-6,62,0,0,0,0,0
1565888755281.25,-21,-5,60,0,0,0,0,0
1565888755312.5,-18,-5,63,0,0,0,0,0
1565888755343.75,-14,-6,63,0,0,0,0,0
1565888755375,-18,-10,61,0,0,0,0,0
1565888755406.25,-20,-11,60,0,0,0,0,0
1565888755437.5,-22,-12,59,0,0,0,0,0
1565888755468.75,-24,-15,58,0,0,0,0,0
1565888755500,-26,-16,56,0,0,0,0,0
1565888755531.25,-24,-17,56,0,0,0,0,0
1565888755562.5,-23,-17,56,0,0,0,0,0
1565888755593.75,-26,-18,56,0,0,0,0,0
1565888755625,-25,-19,56,0,0,0,0,0
1565888755656.25,-25,-19,56,0,0,0,0,0
1565888755687.5,-26,-18,56,0,0,0,0,0
1565888755718.75,-25,-18,56,0,0,0,0,0
1565888755750,-26,-17,56,0,0,0,0,0
1565888755781.25,-26,-14,57,0,0,0,0,0
1565888755812.5,-26,-13,57,0,0,0,0,0
1565888755843.75,-30,-10,55,0,0,0,0,0
1565888755875,-35,-7,54,0,0,0,0,0
1565888755906.25,-36,-5,53,0,0,0,0,0
1565888755937.5,-35,-5,52,0,0,0,0,0
1565888755968.75,-38,-6,51,0,0,0,0,0
1565888756000,-45,-8,48,0,0,0,0,0
1565888756031.25,-33,-7,52,0,0,0,0,0
1565888756062.5,-21,-4,60,0,0,0,0,0
1565888756093.75,-26,-5,58,0,0,0,0,0
1565888756125,-31,-6,54,0,0,0,0,0
1565888756156.25,-32,-7,54,0,0,0,0,0
1565888756187.5,-36,-7,53,0,0,0,0,0
1565888756218.75,-36,-8,52,0,0,0,0,0
1565888756250,-37,-6,51,0,0,0,0,0
1565888756281.25,-39,-5,51,0,0,0,0,0
1565888756312.5,-39,-6,51,0,0,0,0,0
1565888756343.75,-38,-10,50,0,0,0,0,0
1565888756375,-39,-9,49,0,0,0,0,0
1565888756406.25,-40,-8,48,0,0,0,0,0
1565888756437.5,-40,-9,48,0,0,0,0,0
1565888756468.75,-39,-9,49,0,0,0,0,0
1565888756500,-39,-9,49,0,0,0,0,0
1565888756531.25,-39,-9,49,0,0,0,0,0
1565888756562.5,-38,-9,50,0,0,0,0,0
1565888756593.75,-39,-9,50,0,0,0,0,0
1565888756625,-38,-9,50,0,0,0,0,0
1565888756656.25,-38,-9,50,0,0,0,0,0
1565888756687.5,-38,-9,50,0,0,0,0,0
1565888756718.75,-38,-9,50,0,0,0,0,0
1565888756750,-38,-9,50,0,0,0,0,0
1565888756781.25,-38,-9,50,0,0,0,0,0
1565888756812.5,-38,-9,50,0,0,0,0,0
1565888756843.75,-38,-9,51,0,0,0,0,0
1565888756875,-38,-8,50,0,0,0,0,0
1565888756906.25,-38,-8,50,0,0,0,0,0
1565888756937.5,-38,-8,50,0,0,0,0,0
1565888756968.75,-39,-8,49,0,0,0,0,0
1565888757000,-38,-8,50,0,0,0,0,0
1565888757031.25,-38,-8,50,0,0,0,0,0
1565888757062.5,-39,-8,50,0,0,0,0,0
1565888757093.75,-38,-8,50,0,0,0,0,0
1565888757125,-38,-9,50,0,0,0,0,0
1565888757156.25,-38,-8,50,0,0,0,0,0
1565888757187.5,-38,-8,50,0,0,0,0,0
1565888757218.75,-38,-8,50,0,0,0,0,0
1565888757250,-38,-8,50,0,0,0,0,0
1565888757281.25,-38,-8,50,0,0,0,0,0
1565888757312.5,-38,-8,50,0,0,0,0,0
1565888757343.75,-38,-9,50,0,0,0,0,0
1565888757375,-38,-8,50,0,0,0,0,0
1565888757406.25,-38,-8,50,0,0,0,0,0
1565888757437.5,-38,-8,50,0,0,0,0,0
1565888757468.75,-38,-8,50,0,0,0,0,0
1565888757500,-38,-9,50,0,0,0,0,0
1565888757531.25,-38,-8,50,0,0,0,0,0
1565888757562.5,-38,-8,50,0,0,0,0,0
1565888757593.75,-38,-8,50,0,0,0,0,0
1565888757625,-38,-9,50,0,0,0,0,0
1565888757656.25,-38,-8,50,0,0,0,0,0
1565888757687.5,-38,-8,50,0,0,0,0,0
1565888757718.75,-38,-9,50,0,0,0,0,0
1565888757750,-38,-9,50,0,0,0,0,0
1565888757781.25,-38,-8,50,0,0,0,0,0
1565888757812.5,-38,-9,50,0,0,0,0,0
1565888757843.75,-38,-8,50,0,0,0,0,0
1565888757875,-38,-8,50,0,0,0,0,0
1565888757906.25,-38,-8,50,0,0,0,0,0
1565888757937.5,-38,-8,50,0,0,0,0,0
1565888757968.75,-38,-8,50,0,0,0,0,0
1565888758000,-38,-8,50,0,0,0,0,0
1565888758031.25,-38,-9,50,0,0,0,0,0
1565888758062.5,-38,-9,50,0,0,0,0,0
1565888758093.75,-38,-9,50,0,0,0,0,0
1565888758125,-38,-9,50,0,0,0,0,0
1565888758156.25,-38,-9,50,0,0,0,0,0
1565888758187.5,-38,-8,50,0,0,0,0,0
1565888758218.75,-38,-8,50,0,0,0,0,0
1565888758250,-38,-9,50,0,0,0,0,0
1565888758281.25,-38,-9,50,0,0,0,0,0
1565888758312.5,-38,-8,50,0,0,0,0,0
1565888758343.75,-38,-8,50,0,0,0,0,0
1565888758375,-38,-9,50,0,0,0,0,0
1565888758406.25,-38,-9,50,0,0,0,0,0
1565888758437.5,-38,-9,50,0,0,0,0,0
1565888758468.75,-38,-9,50,0,0,0,0,0
1565888758500,-38,-9,50,0,0,0,0,0
1565888758531.25,-38,-8,50,0,0,0,0,0
1565888758562.5,-38,-8,50,0,0,0,0,0
1565888758593.75,-38,-9,50,0,0,0,0,0
1565888758625,-38,-9,50,0,0,0,0,0
1565888758656.25,-38,-8,50,0,0,0,0,0
1565888758687.5,-38,-9,50,0,0,0,0,0
1565888758718.75,-38,-8,50,0,0,0,0,0
1565888758750,-38,-8,50,0,0,0,0,0
1565888758781.25,-38,-9,50,0,0,0,0,0
1565888758812.5,-38,-9,50,0,0,0,0,0
1565888758843.75,-38,-9,50,0,0,0,0,0
1565888758875,-38,-9,50,0,0,0,0,0
1565888758906.25,-38,-9,50,0,0,0,0,0
1565888758937.5,-38,-8,50,0,0,0,0,0
1565888758968.75,-38,-9,50,0,0,0,0,0
1565888759000,-38,-9,50,0,0,0,0,0
1565888759031.25,-38,-8,50,0,0,0,0,0
1565888759062.5,-38,-8,50,0,0,0,0,0
1565888759093.75,-38,-8,50,0,0,0,0,0
1565888759125,-38,-9,50,0,0,0,0,0
1565888759156.25,-38,-8,51,0,0,0,0,0
1565888759187.5,-38,-9,50,0,0,0,0,0
1565888759218.75,-38,-9,50,0,0,0,0,0
1565888759250,-38,-9,50,0,0,0,0,0
1565888759281.25,-38,-9,50,0,0,0,0,0
1565888759312.5,-38,-9,50,0,0,0,0,0
1565888759343.75,-38,-8,50,0,0,0,0,0
1565888759375,-38,-9,50,0,0,0,0,0
1565888759406.25,-38,-8,50,0,0,0,0,0
1565888759437.5,-38,-9,50,0,0,0,0,0
1565888759468.75,-38,-8,50,0,0,0,0,0
1565888759500,-38,-9,50,0,0,0,0,0
1565888759531.25,-38,-9,50,0,0,0,0,0
1565888759562.5,-38,-8,50,0,0,0,0,0
1565888759593.75,-38,-8,50,0,0,0,0,0
1565888759625,-38,-9,50,0,0,0,0,0
1565888759656.25,-38,-8,50,0,0,0,0,0
1565888759687.5,-38,-8,51,0,0,0,0,0
1565888759718.75,-39,-8,50,0,0,0,0,0
1565888759750,-38,-9,50,0,0,0,0,0
1565888759781.25,-38,-9,50,0,0,0,0,0
1565888759812.5,-38,-8,50,0,0,0,0,0
1565888759843.75,-38,-8,51,0,0,0,0,0
1565888759875,-38,-9,50,0,0,0,0,0
1565888759906.25,-38,-8,50,0,0,0,0,0
1565888759937.5,-38,-8,50,0,0,0,0,0
1565888759968.75,-38,-9,50,0,0,0,0,0
1565888760000,-38,-8,50,0,0,0,0,0
1565888760031.25,-38,-9,50,0,0,0,0,0
1565888760062.5,-39,-8,50,0,0,0,0,0
1565888760093.75,-38,-8,50,0,0,0,0,0
1565888760125,-38,-9,50,0,0,0,0,0
1565888760156.25,-39,-8,50,0,0,0,0,0
1565888760187.5,-38,-8,50,0,0,0,0,0
1565888760218.75,-38,-9,50,0,0,0,0,0
1565888760250,-38,-9,50,0,0,0,0,0
1565888760281.25,-38,-9,50,0,0,0,0,0
1565888760312.5,-38,-8,50,0,0,0,0,0
1565888760343.75,-38,-8,50,0,0,0,0,0
1565888760375,-38,-8,50,0,0,0,0,0
1565888760406.25,-38,-8,50,0,0,0,0,0
1565888760437.5,-38,-8,51,0,0,0,0,0
1565888760468.75,-38,-8,50,0,0,0,0,0
1565888760500,-38,-8,50,0,0,0,0,0
1565888760531.25,-38,-8,50,0,0,0,0,0
1565888760562.5,-38,-8,50,0,0,0,0,0
1565888760593.75,-38,-8,50,0,0,0,0,0
1565888760625,-38,-8,50,0,0,0,0,0
1565888760656.25,-38,-8,50,0,0,0,0,0
1565888760687.5,-38,-8,50,0,0,0,0,0
1565888760718.75,-38,-8,50,0,0,0,0,0
1565888760750,-38,-8,50,0,0,0,0,0
1565888760781.25,-38,-8,50,0,0,0,0,0
1565888760812.5,-38,-8,50,0,0,0,0,0
1565888760843.75,-38,-8,50,0,0,0,0,0
1565888760875,-38,-8,50,0,0,0,0,0
1565888760906.25,-38,-8,50,0,0,0,0,0
1565888760937.5,-38,-8,50,0,0,0,0,0
1565888760968.75,-38,-9,50,0,0,0,0,0
1565888761000,-38,-8,50,0,0,0,0,0
1565888761031.25,-38,-8,50,0,0,0,0,0
1565888761062.5,-38,-8,50,0,0,0,0,0
1565888761093.75,-38,-8,50,0,0,0,0,0
1565888761125,-38,-8,51,0,0,0,0,0
1565888761156.25,-38,-9,50,0,0,0,0,0
1565888761187.5,-38,-8,50,0,0,0,0,0
1565888761218.75,-38,-8,51,0,0,0,0,0
1565888761250,-38,-8,50,0,0,0,0,0
1565888761281.25,-38,-8,50,0,0,0,0,0
1565888761312.5,-38,-9,50,0,0,0,0,0
1565888761343.75,-38,-9,50,0,0,0,0,0
1565888761375,-38,-8,51,0,0,0,0,0
1565888761406.25,-38,-8,50,0,0,0,0,0
1565888761437.5,-38,-8,50,0,0,0,0,0
1565888761468.75,-38,-9,50,0,0,0,0,0
1565888761500,-38,-9,50,0,0,0,0,0
1565888761531.25,-38,-9,50,0,0,0,0,0
1565888761562.5,-38,-9,50,0,0,0,0,0
1565888761593.75,-38,-8,50,0,0,0,0,0
1565888761625,-38,-8,50,0,0,0,0,0
1565888761656.25,-38,-8,50,0,0,0,0,0
1565888761687.5,-38,-8,50,0,0,0,0,0
1565888761718.75,-38,-9,50,0,0,0,0,0
1565888761750,-38,-8,50,0,0,0,0,0
1565888761781.25,-38,-8,50,0,0,0,0,0
1565888761812.5,-38,-8,50,0,0,0,0,0
1565888761843.75,-38,-8,50,0,0,0,0,0
1565888761875,-38,-9,50,0,0,0,0,0
1565888761906.25,-38,-8,50,0,0,0,0,0
1565888761937.5,-38,-8,50,0,0,0,0,0
1565888761968.75,-38,-8,50,0,0,0,0,0
1565888762000,-38,-8,50,0,0,0,0,0
1565888762031.25,-38,-8,50,0,0,0,0,0
1565888762062.5,-38,-8,50,0,0,0,0,0
1565888762093.75,-38,-9,50,0,0,0,0,0
1565888762125,-38,-9,50,0,0,0,0,0
1565888762156.25,-38,-8,50,0,0,0,0,0
1565888762187.5,-38,-8,50,0,0,0,0,0
1565888762218.75,-38,-8,50,0,0,0,0,0
1565888762250,-38,-8,50,0,0,0,0,0
1565888762281.25,-38,-8,50,0,0,0,0,0
1565888762312.5,-38,-8,50,0,0,0,0,0
1565888762343.75,-38,-8,50,0,0,0,0,0
1565888762375,-38,-8,50,0,0,0,0,0
1565888762406.25,-38,-8,50,0,0,0,0,0
1565888762437.5,-38,-9,50,0,0,0,0,0
1565888762468.75,-38,-8,50,0,0,0,0,0
1565888762500,-38,-8,50,0,0,0,0,0
1565888762531.25,-38,-8,50,0,0,0,0,0
1565888762562.5,-38,-9,50,0,0,0,0,0
1565888762593.75,-38,-8,50,0,0,0,0,0
1565888762625,-38,-9,50,0,0,0,0,0
1565888762656.25,-38,-8,50,0,0,0,0,0
1565888762687.5,-38,-8,50,0,0,0,0,0
1565888762718.75,-38,-8,50,0,0,0,0,0
1565888762750,-38,-8,50,0,0,0,0,0
1565888762781.25,-38,-8,50,0,0,0,0,0
1565888762812.5,-38,-8,50,0,0,0,0,0
1565888762843.75,-38,-8,50,0,0,0,0,0
1565888762875,-38,-8,50,0,0,0,0,0
1565888762906.25,-38,-8,50,0,0,0,0,0
1565888762937.5,-39,-8,50,0,0,0,0,0
1565888762968.75,-38,-9,50,0,0,0,0,0
1565888763000,-38,-9,50,0,0,0,0,0
1565888763031.25,-38,-9,50,0,0,0,0,0
1565888763062.5,-38,-8,50,0,0,0,0,0
1565888763093.75,-38,-8,50,0,0,0,0,0
1565888763125,-38,-9,50,0,0,0,0,0
1565888763156.25,-38,-9,50,0,0,0,0,0
1565888763187.5,-39,-8,50,0,0,0,0,0
1565888763218.75,-38,-8,50,0,0,0,0,0
1565888763250,-38,-8,50,0,0,0,0,0
1565888763281.25,-38,-8,50,0,0,0,0,0
1565888763312.5,-38,-9,50,0,0,0,0,0
1565888763343.75,-38,-8,50,0,0,0,0,0
1565888763375,-38,-8,50,0,0,0,0,0
1565888763406.25,-38,-8,50,0,0,0,0,0
1565888763437.5,-38,-9,50,0,0,0,0,0
1565888763468.75,-38,-8,50,0,0,0,0,0
1565888763500,-38,-8,50,0,0,0,0,0
1565888763531.25,-38,-9,50,0,0,0,0,0
1565888763562.5,-38,-9,50,0,0,0,0,0
1565888763593.75,-38,-8,50,0,0,0,0,0
1565888763625,-38,-8,50,0,0,0,0,0
1565888763656.25,-38,-9,50,0,0,0,0,0
1565888763687.5,-38,-9,51,0,0,0,0,0
1565888763718.75,-38,-9,50,0,0,0,0,0
1565888763750,-38,-9,51,0,0,0,0,0
1565888763781.25,-38,-9,50,0,0,0,0,0
1565888763812.5,-38,-8,50,0,0,0,0,0
1565888763843.75,-38,-8,50,0,0,0,0,0
1565888763875,-38,-8,50,0,0,0,0,0
1565888763906.25,-38,-8,50,0,0,0,0,0
1565888763937.5,-38,-8,50,0,0,0,0,0
1565888763968.75,-38,-8,50,0,0,0,0,0
1565888764000,-38,-8,50,0,0,0,0,0
1565888764031.25,-38,-8,50,0,0,0,0,0
1565888764062.5,-38,-9,50,0,0,0,0,0
1565888764093.75,-38,-9,50,0,0,0,0,0
1565888764125,-38,-9,50,0,0,0,0,0
1565888764156.25,-38,-8,50,0,0,0,0,0
1565888764187.5,-38,-9,50,0,0,0,0,0
1565888764218.75,-38,-9,50,0,0,0,0,0
1565888764250,-38,-8,50,0,0,0,0,0
1565888764281.25,-38,-8,50,0,0,0,0,0
1565888764312.5,-38,-8,50,0,0,0,0,0
1565888764343.75,-38,-9,51,0,0,0,0,0
1565888764375,-38,-9,50,0,0,0,0,0
1565888764406.25,-38,-8,50,0,0,0,0,0
1565888764437.5,-38,-8,50,0,0,0,0,0
1565888764468.75,-38,-9,50,0,0,0,0,0
1565888764500,-38,-9,50,0,0,0,0,0
1565888764531.25,-39,-9,50,0,0,0,0,0
1565888764562.5,-39,-9,50,0,0,0,0,0
1565888764593.75,-39,-9,50,0,0,0,0,0
1565888764625,-38,-9,50,0,0,0,0,0
1565888764656.25,-38,-9,51,0,0,0,0,0
1565888764687.5,-39,-9,50,0,0,0,0,0
1565888764718.75,-38,-9,50,0,0,0,0,0
1565888764750,-38,-9,50,0,0,0,0,0
1565888764781.25,-38,-9,50,0,0,0,0,0
1565888764812.5,-39,-8,49,0,0,0,0,0
1565888764843.75,-39,-9,49,0,0,0,0,0
1565888764875,-39,-8,49,0,0,0,0,0
1565888764906.25,-40,-8,49,0,0,0,0,0
1565888764937.5,-39,-9,49,0,0,0,0,0
1565888764968.75,-39,-8,49,0,0,0,0,0
1565888765000,-39,-8,49,0,0,0,0,0
1565888765031.25,-39,-8,49,0,0,0,0,0
1565888765062.5,-39,-8,50,0,0,0,0,0
1565888765093.75,-40,-8,50,0,0,0,0,0
1565888765125,-40,-7,49,0,0,0,0,0
1565888765156.25,-39,-7,50,0,0,0,0,0
1565888765187.5,-39,-8,50,0,0,0,0,0
1565888765218.75,-39,-8,50,0,0,0,0,0
1565888765250,-39,-7,49,0,0,0,0,0
1565888765281.25,-39,-7,50,0,0,0,0,0
1565888765312.5,-39,-7,50,0,0,0,0,0
1565888765343.75,-39,-7,50,0,0,0,0,0
1565888765375,-39,-7,50,0,0,0,0,0
1565888765406.25,-39,-8,50,0,0,0,0,0
1565888765437.5,-39,-7,50,0,0,0,0,0
1565888765468.75,-39,-7,50,0,0,0,0,0
1565888765500,-38,-8,50,0,0,0,0,0
1565888765531.25,-38,-7,51,0,0,0,0,0
1565888765562.5,-37,-8,51,0,0,0,0,0
1565888765593.75,-37,-8,52,0,0,0,0,0
1565888765625,-36,-8,52,0,0,0,0,0
1565888765656.25,-35,-9,52,0,0,0,0,0
1565888765687.5,-35,-9,53,0,0,0,0,0
1565888765718.75,-34,-10,54,0,0,0,0,0
1565888765750,-33,-11,53,0,0,0,0,0
1565888765781.25,-33,-11,54,0,0,0,0,0
1565888765812.5,-33,-11,54,0,0,0,0,0
1565888765843.75,-32,-11,55,0,0,0,0,0
1565888765875,-29,-12,54,0,0,0,0,0
1565888765906.25,-32,-13,54,0,0,0,0,0
1565888765937.5,-28,-15,54,0,0,0,0,0
1565888765968.75,-24,-16,55,0,0,0,0,0
1565888766000,-24,-16,57,0,0,0,0,0
1565888766031.25,-23,-17,58,0,0,0,0,0
1565888766062.5,-23,-16,58,0,0,0,0,0
1565888766093.75,-23,-18,58,0,0,0,0,0
