Timestamp,ACC_X,ACC_Y,ACC_Z,Note,AGG,ED,SIB,Condition
1569605750000,-26,4,59,0,0,0,0,0
1569605750031.25,-26,3,58,0,0,0,0,0
1569605750062.5,-26,3,58,0,0,0,0,0
1569605750093.75,-26,4,56,0,0,0,0,0
1569605750125,-25,5,60,0,0,0,0,0
1569605750156.25,-27,6,60,0,0,0,0,0
1569605750187.5,-26,5,59,0,0,0,0,0
1569605750218.75,-26,5,58,0,0,0,0,0
1569605750250,-26,5,58,0,0,0,0,0
1569605750281.25,-26,5,57,0,0,0,0,0
1569605750312.5,-26,5,58,0,0,0,0,0
1569605750343.75,-24,3,59,0,0,0,0,0
1569605750375,-21,2,59,0,0,0,0,0
1569605750406.25,-23,3,59,0,0,0,0,0
1569605750437.5,-24,4,58,0,0,0,0,0
1569605750468.75,-25,5,59,0,0,0,0,0
1569605750500,-24,5,59,0,0,0,0,0
1569605750531.25,-24,4,60,0,0,0,0,0
1569605750562.5,-25,5,59,0,0,0,0,0
1569605750593.75,-25,6,59,0,0,0,0,0
1569605750625,-25,6,59,0,0,0,0,0
1569605750656.25,-26,7,60,0,0,0,0,0
1569605750687.5,-25,6,60,0,0,0,0,0
1569605750718.75,-17,4,61,0,0,0,0,0
1569605750750,-18,4,60,0,0,0,0,0
1569605750781.25,-22,5,60,0,0,0,0,0
1569605750812.5,-22,6,60,0,0,0,0,0
1569605750843.75,-23,7,61,0,0,0,0,0
1569605750875,-24,7,60,0,0,0,0,0
1569605750906.25,-26,5,59,0,0,0,0,0
1569605750937.5,-27,5,58,0,0,0,0,0
1569605750968.75,-27,5,57,0,0,0,0,0
1569605751000,-26,3,56,0,0,0,0,0
1569605751031.25,-27,3,55,0,0,0,0,0
1569605751062.5,-28,5,56,0,0,0,0,0
1569605751093.75,-27,6,58,0,0,0,0,0
1569605751125,-26,6,60,0,0,0,0,0
1569605751156.25,-25,5,60,0,0,0,0,0
1569605751187.5,-24,5,59,0,0,0,0,0
1569605751218.75,-25,5,59,0,0,0,0,0
1569605751250,-28,6,58,0,0,0,0,0
1569605751281.25,-29,6,58,0,0,0,0,0
1569605751312.5,-25,4,57,0,0,0,0,0
1569605751343.75,-26,4,58,0,0,0,0,0
1569605751375,-26,4,57,0,0,0,0,0
1569605751406.25,-26,5,58,0,0,0,0,0
1569605751437.5,-26,5,58,0,0,0,0,0
1569605751468.75,-25,5,59,0,0,0,0,0
1569605751500,-23,4,59,0,0,0,0,0
1569605751531.25,-24,4,59,0,0,0,0,0
1569605751562.5,-24,5,59,0,0,0,0,0
1569605751593.75,-25,5,58,0,0,0,0,0
1569605751625,-25,5,58,0,0,0,0,0
1569605751656.25,-25,4,58,0,0,0,0,0
1569605751687.5,-25,4,58,0,0,0,0,0
1569605751718.75,-25,4,58,0,0,0,0,0
1569605751750,-28,5,58,0,0,0,0,0
1569605751781.25,-28,5,58,0,0,0,0,0
1569605751812.5,-28,4,58,0,0,0,0,0
1569605751843.75,-27,4,57,0,0,0,0,0
1569605751875,-26,3,57,0,0,0,0,0
1569605751906.25,-27,3,57,0,0,0,0,0
1569605751937.5,-27,4,57,0,0,0,0,0
1569605751968.75,-27,5,58,0,0,0,0,0
1569605752000,-28,5,60,0,0,0,0,0
1569605752031.25,-28,6,59,0,0,0,0,0
1569605752062.5,-29,5,58,0,0,0,0,0
1569605752093.75,-28,4,57,0,0,0,0,0
1569605752125,-27,3,57,0,0,0,0,0
1569605752156.25,-28,2,56,0,0,0,0,0
1569605752187.5,-29,2,55,0,0,0,0,0
1569605752218.75,-27,2,56,0,0,0,0,0
1569605752250,-28,3,57,0,0,0,0,0
1569605752281.25,-27,3,58,0,0,0,0,0
1569605752312.5,-27,3,58,0,0,0,0,0
1569605752343.75,-26,3,57,0,0,0,0,0
1569605752375,-25,3,57,1,0,0,0,0
1569605752406.25,-26,3,58,1,0,0,0,0
1569605752437.5,-26,4,58,1,0,0,0,0
1569605752468.75,-26,5,59,1,0,0,0,0
1569605752500,-26,5,59,1,0,0,0,0
1569605752531.25,-25,6,60,1,0,0,0,0
1569605752562.5,-25,6,60,1,0,0,0,0
1569605752593.75,-24,6,59,1,0,0,0,0
1569605752625,-23,5,59,1,0,0,0,0
1569605752656.25,-23,6,60,1,0,0,0,0
1569605752687.5,-23,5,60,1,0,0,0,0
1569605752718.75,-24,6,60,1,0,0,0,0
1569605752750,-25,6,60,1,0,0,0,0
1569605752781.25,-26,6,59,1,0,0,0,0
1569605752812.5,-25,6,59,1,0,0,0,0
1569605752843.75,-25,6,59,1,0,0,0,0
1569605752875,-25,5,57,0,0,0,0,0
1569605752906.25,-24,5,57,0,0,0,0,0
1569605752937.5,-24,5,59,0,0,0,0,0
1569605752968.75,-23,5,59,0,0,0,0,0
1569605753000,-23,5,59,0,0,0,0,0
1569605753031.25,-23,5,60,0,0,0,0,0
1569605753062.5,-25,5,60,0,0,0,0,0
1569605753093.75,-24,5,58,0,0,0,0,0
1569605753125,-23,5,58,0,0,0,0,0
1569605753156.25,-25,5,59,0,0,0,0,0
1569605753187.5,-25,5,59,0,0,0,0,0
1569605753218.75,-24,6,60,0,0,0,0,0
1569605753250,-24,6,60,0,0,0,0,0
1569605753281.25,-24,5,60,0,0,0,0,0
1569605753312.5,-25,5,60,0,0,0,0,0
1569605753343.75,-24,5,58,0,0,0,0,0
1569605753375,-24,4,58,0,0,0,0,0
1569605753406.25,-25,5,59,0,0,0,0,0
1569605753437.5,-25,5,59,0,0,0,0,0
1569605753468.75,-25,5,59,0,0,0,0,0
1569605753500,-24,5,59,0,0,0,0,0
1569605753531.25,-24,4,58,0,0,0,0,0
1569605753562.5,-25,4,59,0,0,0,0,0
1569605753593.75,-25,5,58,0,0,0,0,0
1569605753625,-25,5,59,0,0,0,0,0
1569605753656.25,-25,5,59,0,0,0,0,0
1569605753687.5,-25,4,59,0,0,0,0,0
1569605753718.75,-25,4,58,0,0,0,0,0
1569605753750,-24,5,58,0,0,0,0,0
1569605753781.25,-25,5,58,0,0,0,0,0
1569605753812.5,-24,6,60,0,0,0,0,0
1569605753843.75,-23,5,60,0,0,0,0,0
1569605753875,-23,4,60,0,0,0,0,0
1569605753906.25,-25,4,58,0,0,0,0,0
1569605753937.5,-25,4,58,0,0,0,0,0
1569605753968.75,-25,4,57,0,0,0,0,0
1569605754000,-26,4,58,0,0,0,0,0
1569605754031.25,-24,3,57,0,0,0,0,0
1569605754062.5,-25,3,57,0,0,0,0,0
1569605754093.75,-25,4,58,0,0,0,0,0
1569605754125,-25,5,58,0,0,0,0,0
1569605754156.25,-25,5,59,0,0,0,0,0
1569605754187.5,-25,6,60,0,0,0,0,0
1569605754218.75,-24,4,60,0,0,0,0,0
1569605754250,-25,5,59,0,0,0,0,0
1569605754281.25,-25,5,58,0,0,0,0,0
1569605754312.5,-25,5,59,0,0,0,0,0
1569605754343.75,-25,5,60,0,0,0,0,0
1569605754375,-24,5,60,0,0,0,0,0
1569605754406.25,-24,5,60,0,0,0,0,0
1569605754437.5,-25,5,59,0,0,0,0,0
1569605754468.75,-26,5,59,0,0,0,0,0
1569605754500,-26,4,58,0,0,0,0,0
1569605754531.25,-26,4,58,0,0,0,0,0
1569605754562.5,-25,4,58,0,0,0,0,0
1569605754593.75,-23,2,59,0,0,0,0,0
1569605754625,-24,4,60,0,0,0,0,0
1569605754656.25,-28,5,60,0,0,0,0,0
1569605754687.5,-28,3,59,0,0,0,0,0
1569605754718.75,-26,2,57,0,0,0,0,0
1569605754750,-25,2,56,0,0,0,0,0
1569605754781.25,-26,2,55,0,0,0,0,0
1569605754812.5,-26,1,55,0,0,0,0,0
1569605754843.75,-27,0,55,0,0,0,0,0
1569605754875,-26,1,56,0,0,0,0,0
1569605754906.25,-28,2,59,0,0,0,0,0
1569605754937.5,-27,1,58,0,0,0,0,0
1569605754968.75,-25,3,58,0,0,0,0,0
1569605755000,-24,4,59,0,0,0,0,0
1569605755031.25,-23,4,59,0,0,0,0,0
1569605755062.5,-23,5,61,0,0,0,0,0
1569605755093.75,-23,5,61,0,0,0,0,0
1569605755125,-23,5,61,0,0,0,0,0
1569605755156.25,-24,6,60,0,0,0,0,0
1569605755187.5,-22,5,60,0,0,0,0,0
1569605755218.75,-22,6,60,0,0,0,0,0
1569605755250,-22,5,59,0,0,0,0,0
1569605755281.25,-23,6,60,0,0,0,0,0
1569605755312.5,-21,5,61,0,0,0,0,0
1569605755343.75,-21,6,61,0,0,0,0,0
1569605755375,-23,6,60,0,0,0,0,0
1569605755406.25,-24,6,60,0,0,0,0,0
1569605755437.5,-23,5,59,0,0,0,0,0
1569605755468.75,-23,4,60,0,0,0,0,0
1569605755500,-23,4,59,0,0,0,0,0
1569605755531.25,-24,5,59,0,0,0,0,0
1569605755562.5,-23,4,58,0,0,0,0,0
1569605755593.75,-22,4,57,0,0,0,0,0
1569605755625,-23,4,57,0,0,0,0,0
1569605755656.25,-23,5,58,0,0,0,0,0
1569605755687.5,-22,6,60,0,0,0,0,0
1569605755718.75,-21,7,63,0,0,0,0,0
1569605755750,-20,8,63,0,0,0,0,0
1569605755781.25,-20,5,63,0,0,0,0,0
1569605755812.5,-21,4,61,0,0,0,0,0
1569605755843.75,-23,4,59,0,0,0,0,0
1569605755875,-24,4,58,0,0,0,0,0
1569605755906.25,-25,4,58,0,0,0,0,0
1569605755937.5,-25,4,58,0,0,0,0,0
1569605755968.75,-25,4,59,0,0,0,0,0
1569605756000,-24,5,58,0,0,0,0,0
1569605756031.25,-24,4,59,0,0,0,0,0
1569605756062.5,-22,4,60,0,0,0,0,0
1569605756093.75,-22,4,60,0,0,0,0,0
1569605756125,-20,5,61,0,0,0,0,0
1569605756156.25,-20,5,61,0,0,0,0,0
1569605756187.5,-20,6,62,0,0,0,0,0
1569605756218.75,-20,6,61,0,0,0,0,0
1569605756250,-22,6,61,0,0,0,0,0
1569605756281.25,-23,5,60,0,0,0,0,0
1569605756312.5,-22,5,60,0,0,0,0,0
1569605756343.75,-23,5,58,0,0,0,0,0
1569605756375,-23,4,59,0,0,0,0,0
1569605756406.25,-22,4,59,0,0,0,0,0
1569605756437.5,-23,5,59,0,0,0,0,0
1569605756468.75,-22,5,59,0,0,0,0,0
1569605756500,-22,6,60,0,0,0,0,0
1569605756531.25,-21,6,61,0,0,0,0,0
1569605756562.5,-21,6,61,0,0,0,0,0
1569605756593.75,-21,6,62,0,0,0,0,0
1569605756625,-21,6,62,0,0,0,0,0
1569605756656.25,-21,6,61,0,0,0,0,0
1569605756687.5,-21,4,59,0,0,0,0,0
1569605756718.75,-21,4,59,0,0,0,0,0
1569605756750,-23,4,59,0,0,0,0,0
1569605756781.25,-23,3,59,0,0,0,0,0
1569605756812.5,-24,5,59,0,0,0,0,0
1569605756843.75,-25,5,59,0,0,0,0,0
1569605756875,-24,5,60,0,0,0,0,0
1569605756906.25,-22,5,60,0,0,0,0,0
1569605756937.5,-22,5,60,0,0,0,0,0
1569605756968.75,-21,4,61,0,0,0,0,0
1569605757000,-20,4,60,0,0,0,0,0
1569605757031.25,-20,5,60,0,0,0,0,0
1569605757062.5,-21,4,59,0,0,0,0,0
1569605757093.75,-21,4,59,0,0,0,0,0
1569605757125,-22,4,60,0,0,0,0,0
1569605757156.25,-24,4,60,0,0,0,0,0
1569605757187.5,-24,5,60,0,0,0,0,0
1569605757218.75,-23,7,60,0,0,0,0,0
1569605757250,-24,7,60,0,0,0,0,0
1569605757281.25,-22,7,60,0,0,0,0,0
1569605757312.5,-21,7,61,0,0,0,0,0
1569605757343.75,-19,7,61,0,0,0,0,0
1569605757375,-19,7,61,0,0,0,0,0
1569605757406.25,-18,6,61,0,0,0,0,0
1569605757437.5,-18,6,61,0,0,0,0,0
1569605757468.75,-21,6,61,0,0,0,0,0
1569605757500,-21,7,61,0,0,0,0,0
1569605757531.25,-22,7,62,0,0,0,0,0
1569605757562.5,-23,6,61,0,0,0,0,0
1569605757593.75,-22,5,58,0,0,0,0,0
1569605757625,-18,3,58,0,0,0,0,0
1569605757656.25,-18,4,59,0,0,0,0,0
1569605757687.5,-22,4,59,0,0,0,0,0
1569605757718.75,-22,4,58,0,0,0,0,0
1569605757750,-22,6,60,0,0,0,0,0
1569605757781.25,-22,6,61,0,0,0,0,0
1569605757812.5,-20,6,62,0,0,0,0,0
1569605757843.75,-19,6,62,0,0,0,0,0
1569605757875,-18,5,62,0,0,0,0,0
1569605757906.25,-19,5,61,0,0,0,0,0
1569605757937.5,-19,5,61,0,0,0,0,0
1569605757968.75,-20,6,61,0,0,0,0,0
1569605758000,-20,5,61,0,0,0,0,0
1569605758031.25,-21,5,60,0,0,0,0,0
1569605758062.5,-21,4,60,0,0,0,0,0
1569605758093.75,-21,4,59,0,0,0,0,0
1569605758125,-21,4,59,0,0,0,0,0
1569605758156.25,-22,4,60,0,0,0,0,0
1569605758187.5,-21,5,60,0,0,0,0,0
1569605758218.75,-21,5,61,0,0,0,0,0
1569605758250,-21,5,61,0,0,0,0,0
1569605758281.25,-21,5,60,0,0,0,0,0
1569605758312.5,-20,5,61,0,0,0,0,0
1569605758343.75,-20,4,60,0,0,0,0,0
1569605758375,-21,4,59,0,0,0,0,0
1569605758406.25,-23,4,60,0,0,0,0,0
1569605758437.5,-34,11,67,0,0,0,0,0
1569605758468.75,-45,12,74,0,0,0,0,0
1569605758500,-45,5,53,0,0,0,0,0
1569605758531.25,-43,5,56,0,0,0,0,0
1569605758562.5,-19,4,56,0,0,0,0,0
1569605758593.75,-1,3,61,0,0,0,0,0
1569605758625,-7,-7,58,0,0,0,0,0
1569605758656.25,-16,-9,53,0,0,0,0,0
1569605758687.5,-44,-6,51,0,0,0,0,0
1569605758718.75,-52,-6,51,0,0,0,0,0
1569605758750,-55,-5,45,0,0,0,0,0
1569605758781.25,-59,-9,49,0,0,0,0,0
1569605758812.5,-45,-11,59,0,0,0,0,0
1569605758843.75,-8,-13,64,0,0,0,0,0
1569605758875,-8,-19,66,0,0,0,0,0
1569605758906.25,-19,-31,52,0,0,0,0,0
1569605758937.5,-25,-31,48,0,0,0,0,0
1569605758968.75,-25,-31,41,0,0,0,0,0
1569605759000,-28,-32,36,0,0,0,0,0
1569605759031.25,-24,-26,50,0,0,0,0,0
1569605759062.5,-23,-22,50,0,0,0,0,0
1569605759093.75,-23,-12,43,0,0,0,0,0
1569605759125,-27,-13,66,0,0,0,0,0
1569605759156.25,-29,-25,44,0,0,0,0,0
1569605759187.5,-45,-31,34,0,0,0,0,0
1569605759218.75,-35,-31,40,0,0,0,0,0
1569605759250,-29,-28,45,0,0,0,0,0
1569605759281.25,-29,-29,44,0,0,0,0,0
1569605759312.5,-24,-29,43,0,0,0,0,0
1569605759343.75,-27,-26,42,0,0,0,0,0
1569605759375,22,-22,74,0,0,0,0,0
1569605759406.25,25,-23,75,0,0,0,0,0
1569605759437.5,-20,-23,64,0,0,0,0,0
1569605759468.75,-11,-26,71,0,0,0,0,0
1569605759500,1,-24,62,0,0,0,0,0
1569605759531.25,-5,-21,56,0,0,0,0,0
1569605759562.5,-23,-23,51,0,0,0,0,0
1569605759593.75,-28,-27,46,0,0,0,0,0
1569605759625,-31,-27,43,0,0,0,0,0
1569605759656.25,-30,-28,42,0,0,0,0,0
1569605759687.5,-30,-26,39,0,0,0,0,0
1569605759718.75,-36,-26,36,0,0,0,0,0
1569605759750,-43,-27,38,0,0,0,0,0
1569605759781.25,-45,-25,33,0,0,0,0,0
1569605759812.5,-49,-24,37,0,0,0,0,0
1569605759843.75,-56,-23,41,0,0,0,0,0
1569605759875,-53,-23,38,0,0,0,0,0
1569605759906.25,-57,-25,32,0,0,0,0,0
1569605759937.5,-57,-24,30,0,0,0,0,0
1569605759968.75,-55,-26,27,0,0,0,0,0
1569605760000,-57,-24,31,0,0,0,0,0
1569605760031.25,-57,-23,36,0,0,0,0,0
1569605760062.5,-47,-20,48,0,0,0,0,0
1569605760093.75,-39,-18,56,0,0,0,0,0
1569605760125,-18,-15,73,0,0,0,0,0
1569605760156.25,-8,-14,78,0,0,0,0,0
1569605760187.5,-3,-15,72,0,0,0,0,0
1569605760218.75,2,-19,65,0,0,0,0,0
1569605760250,12,-30,51,0,0,0,0,0
1569605760281.25,17,-34,44,0,0,0,0,0
1569605760312.5,25,-40,38,0,0,0,0,0
1569605760343.75,27,-37,41,0,0,0,0,0
1569605760375,9,-31,46,0,0,0,0,0
1569605760406.25,-1,-20,48,0,0,0,0,0
1569605760437.5,-15,6,50,0,0,0,0,0
1569605760468.75,-36,19,66,0,0,0,0,0
1569605760500,-42,20,66,0,0,0,0,0
1569605760531.25,-31,23,72,0,0,0,0,0
1569605760562.5,-22,18,75,0,0,0,0,0
1569605760593.75,-14,16,64,0,0,0,0,0
1569605760625,-26,9,62,0,0,0,0,0
1569605760656.25,-23,2,54,0,0,0,0,0
1569605760687.5,-28,3,51,0,0,0,0,0
1569605760718.75,-6,11,72,0,0,0,0,0
1569605760750,-15,7,60,0,0,0,0,0
1569605760781.25,7,5,64,0,0,0,0,0
1569605760812.5,12,6,62,0,0,0,0,0
1569605760843.75,16,8,61,0,0,0,0,0
1569605760875,19,11,60,0,0,0,0,0
1569605760906.25,22,11,60,0,0,0,0,0
1569605760937.5,22,9,62,0,0,0,0,0
1569605760968.75,22,6,64,0,0,0,0,0
1569605761000,14,1,62,0,0,0,0,0
1569605761031.25,16,7,67,0,0,0,0,0
1569605761062.5,15,5,65,0,0,0,0,0
1569605761093.75,16,7,63,0,0,0,0,0
1569605761125,15,10,62,0,0,0,0,0
1569605761156.25,13,10,61,0,0,0,0,0
1569605761187.5,11,12,61,0,0,0,0,0
1569605761218.75,9,12,62,0,0,0,0,0
1569605761250,11,12,61,0,0,0,0,0
1569605761281.25,12,13,61,0,0,0,0,0
1569605761312.5,13,15,60,0,0,0,0,0
1569605761343.75,11,19,59,0,0,0,0,0
1569605761375,7,21,59,0,0,0,0,0
1569605761406.25,5,20,59,0,0,0,0,0
1569605761437.5,9,17,61,0,0,0,0,0
1569605761468.75,12,14,61,0,0,0,0,0
1569605761500,13,12,62,0,0,0,0,0
1569605761531.25,10,10,64,0,0,0,0,0
1569605761562.5,7,10,62,0,0,0,0,0
1569605761593.75,5,11,64,0,0,0,0,0
1569605761625,2,12,63,0,0,0,0,0
1569605761656.25,4,13,62,0,0,0,0,0
1569605761687.5,8,15,63,0,0,0,0,0
1569605761718.75,5,15,62,0,0,0,0,0
1569605761750,10,16,62,0,0,0,0,0
1569605761781.25,1,14,60,0,0,0,0,0
1569605761812.5,5,14,62,0,0,0,0,0
1569605761843.75,6,12,62,0,0,0,0,0
1569605761875,10,12,62,0,0,0,0,0
1569605761906.25,8,11,63,0,0,0,0,0
1569605761937.5,10,10,64,0,0,0,0,0
1569605761968.75,8,9,65,0,0,0,0,0
1569605762000,2,11,65,0,0,0,0,0
1569605762031.25,2,11,63,0,0,0,0,0
1569605762062.5,1,13,62,0,0,0,0,0
1569605762093.75,-1,14,61,0,0,0,0,0
1569605762125,0,14,62,0,0,0,0,0
1569605762156.25,3,11,64,0,0,0,0,0
1569605762187.5,9,10,62,0,0,0,0,0
1569605762218.75,10,11,63,0,0,0,0,0
1569605762250,18,8,62,0,0,0,0,0
1569605762281.25,17,13,59,0,0,0,0,0
1569605762312.5,14,16,60,0,0,0,0,0
1569605762343.75,9,18,61,0,0,0,0,0
1569605762375,8,18,60,0,0,0,0,0
1569605762406.25,6,18,62,0,0,0,0,0
1569605762437.5,9,16,61,0,0,0,0,0
1569605762468.75,12,16,61,0,0,0,0,0
1569605762500,7,16,62,0,0,0,0,0
1569605762531.25,5,17,62,0,0,0,0,0
1569605762562.5,-3,17,62,0,0,0,0,0
1569605762593.75,0,18,64,0,0,0,0,0
1569605762625,14,22,60,0,0,0,0,0
1569605762656.25,-10,21,48,0,0,0,0,0
1569605762687.5,-43,17,52,0,0,0,0,0
1569605762718.75,-30,20,64,0,0,0,0,0
1569605762750,-30,22,57,0,0,0,0,0
1569605762781.25,-32,22,58,0,0,0,0,0
1569605762812.5,-42,20,52,0,0,0,0,0
1569605762843.75,-46,16,50,0,0,0,0,0
1569605762875,-49,13,43,0,0,0,0,0
1569605762906.25,-48,10,40,0,0,0,0,0
1569605762937.5,-43,8,41,0,0,0,0,0
1569605762968.75,-48,7,30,0,0,0,0,0
1569605763000,-56,4,26,0,0,0,0,0
1569605763031.25,-53,3,24,0,0,0,0,0
1569605763062.5,-50,2,26,0,0,0,0,0
1569605763093.75,-51,-2,25,0,0,0,0,0
1569605763125,-54,-4,24,0,0,0,0,0
1569605763156.25,-58,-7,24,0,0,0,0,0
1569605763187.5,-58,-8,23,0,0,0,0,0
1569605763218.75,-55,-5,16,0,0,0,0,0
1569605763250,-53,-4,10,0,0,0,0,0
1569605763281.25,-52,-1,-2,0,0,0,0,0
1569605763312.5,-57,-4,1,0,0,0,0,0
1569605763343.75,-60,-4,9,0,0,0,0,0
1569605763375,-64,-7,9,0,0,0,0,0
1569605763406.25,-63,-7,7,0,0,0,0,0
1569605763437.5,-65,-10,12,0,0,0,0,0
1569605763468.75,-69,-11,11,0,0,0,0,0
1569605763500,-70,-10,19,0,0,0,0,0
1569605763531.25,-70,-9,19,0,0,0,0,0
1569605763562.5,-68,-8,7,0,0,0,0,0
1569605763593.75,-63,-11,1,0,0,0,0,0
1569605763625,-62,-13,-8,0,0,0,0,0
1569605763656.25,-67,-13,-11,0,0,0,0,0
1569605763687.5,-64,-13,-3,0,0,0,0,0
1569605763718.75,-64,-13,1,0,0,0,0,0
1569605763750,-62,-12,-3,0,0,0,0,0
1569605763781.25,-57,-13,-1,0,0,0,0,0
1569605763812.5,-53,-12,3,0,0,0,0,0
1569605763843.75,-66,-11,-8,0,0,0,0,0
1569605763875,-66,-12,-13,0,0,0,0,0
1569605763906.25,-64,-12,-8,0,0,0,0,0
1569605763937.5,-65,-13,-7,0,0,0,0,0
1569605763968.75,-63,-14,-10,0,0,0,0,0
1569605764000,-61,-14,-10,0,0,0,0,0
1569605764031.25,-59,-14,-8,0,0,0,0,0
1569605764062.5,-58,-14,-13,0,0,0,0,0
1569605764093.75,-62,-13,-14,0,0,0,0,0
1569605764125,-63,-12,-14,0,0,0,0,0
1569605764156.25,-61,-12,-14,0,0,0,0,0
1569605764187.5,-60,-12,-11,0,0,0,0,0
1569605764218.75,-58,-12,-14,0,0,0,0,0
1569605764250,-60,-12,-17,0,0,0,0,0
1569605764281.25,-58,-13,-14,0,0,0,0,0
1569605764312.5,-57,-12,-17,0,0,0,0,0
1569605764343.75,-55,-11,-17,0,0,0,0,0
1569605764375,-57,-10,-14,0,0,0,0,0
1569605764406.25,-64,-9,-17,0,0,0,0,0
1569605764437.5,-66,-10,-22,0,0,0,0,0
1569605764468.75,-65,-10,-21,0,0,0,0,0
1569605764500,-57,-11,-17,0,0,0,0,0
1569605764531.25,-62,-14,-21,0,0,0,0,0
1569605764562.5,-63,-13,-22,0,0,0,0,0
1569605764593.75,-63,-12,-19,0,0,0,0,0
1569605764625,-64,-11,-17,0,0,0,0,0
1569605764656.25,-68,-12,-22,0,0,0,0,0
1569605764687.5,-62,-12,-19,0,0,0,0,0
1569605764718.75,-56,-11,-19,0,0,0,0,0
1569605764750,-54,-9,-13,0,0,0,0,0
1569605764781.25,-62,-6,-26,0,0,0,0,0
1569605764812.5,-64,-6,-28,0,0,0,0,0
1569605764843.75,-57,-8,-28,0,0,0,0,0
1569605764875,-58,-10,-25,0,0,0,0,0
1569605764906.25,-60,-12,-16,0,0,0,0,0
1569605764937.5,-64,-11,-15,0,0,0,0,0
1569605764968.75,-64,-11,-17,0,0,0,0,0
1569605765000,-62,-12,-11,0,0,0,0,0
1569605765031.25,-60,-12,-7,0,0,0,0,0
1569605765062.5,-54,-17,-13,0,0,0,0,0
1569605765093.75,-53,-17,-7,0,0,0,0,0
1569605765125,-52,-14,3,0,0,0,0,0
1569605765156.25,-54,-14,-3,0,0,0,0,0
1569605765187.5,-61,-12,3,0,0,0,0,0
1569605765218.75,-59,-10,4,0,0,0,0,0
1569605765250,-60,-8,3,0,0,0,0,0
1569605765281.25,-64,-8,5,0,0,0,0,0
1569605765312.5,-64,-6,3,0,0,0,0,0
1569605765343.75,-66,-7,4,0,0,0,0,0
1569605765375,-62,-6,7,0,0,0,0,0
1569605765406.25,-64,-7,4,0,0,0,0,0
1569605765437.5,-64,-7,3,0,0,0,0,0
1569605765468.75,-62,-8,4,0,0,0,0,0
1569605765500,-63,-9,6,0,0,0,0,0
1569605765531.25,-68,-8,5,0,0,0,0,0
1569605765562.5,-67,-7,6,0,0,0,0,0
1569605765593.75,-64,-6,5,0,0,0,0,0
1569605765625,-61,-5,5,0,0,0,0,0
1569605765656.25,-64,-4,6,0,0,0,0,0
1569605765687.5,-66,-4,6,0,0,0,0,0
1569605765718.75,-67,-8,6,0,0,0,0,0
1569605765750,-66,-9,6,0,0,0,0,0
1569605765781.25,-65,-8,4,0,0,0,0,0
1569605765812.5,-61,-6,3,0,0,0,0,0
1569605765843.75,-57,-6,6,0,0,0,0,0
1569605765875,-63,-6,1,0,0,0,0,0
1569605765906.25,-64,-7,0,0,0,0,0,0
1569605765937.5,-65,-8,-2,0,0,0,0,0
1569605765968.75,-65,-8,-2,0,0,0,0,0
1569605766000,-61,-7,1,0,0,0,0,0
1569605766031.25,-60,-8,2,0,0,0,0,0
1569605766062.5,-58,-7,0,0,0,0,0,0
1569605766093.75,-58,-7,2,0,0,0,0,0
1569605766125,-64,-8,0,0,0,0,0,0
1569605766156.25,-64,-7,-1,0,0,0,0,0
1569605766187.5,-62,-5,0,0,0,0,0,0
1569605766218.75,-64,-6,-1,0,0,0,0,0
1569605766250,-64,-6,0,0,0,0,0,0
1569605766281.25,-63,-7,-1,0,0,0,0,0
1569605766312.5,-64,-7,-1,0,0,0,0,0
1569605766343.75,-62,-6,1,0,0,0,0,0
1569605766375,-63,-6,0,0,0,0,0,0
1569605766406.25,-62,-6,-1,0,0,0,0,0
1569605766437.5,-62,-6,-1,0,0,0,0,0
1569605766468.75,-63,-6,-1,0,0,0,0,0
1569605766500,-63,-7,-2,0,0,0,0,0
1569605766531.25,-64,-6,-2,0,0,0,0,0
1569605766562.5,-64,-6,3,0,0,0,0,0
1569605766593.75,-62,-5,3,0,0,0,0,0
1569605766625,-64,-5,3,0,0,0,0,0
1569605766656.25,-64,-5,5,0,0,0,0,0
1569605766687.5,-61,-6,5,0,0,0,0,0
1569605766718.75,-62,-7,3,0,0,0,0,0
1569605766750,-62,-7,1,0,0,0,0,0
1569605766781.25,-61,-7,1,0,0,0,0,0
1569605766812.5,-66,-6,-1,0,0,0,0,0
1569605766843.75,-67,-6,0,0,0,0,0,0
1569605766875,-57,-6,6,0,0,0,0,0
1569605766906.25,-58,-6,7,0,0,0,0,0
1569605766937.5,-63,-8,5,0,0,0,0,0
1569605766968.75,-62,-6,5,0,0,0,0,0
1569605767000,-64,-5,6,0,0,0,0,0
1569605767031.25,-67,-3,6,0,0,0,0,0
1569605767062.5,-67,-2,7,0,0,0,0,0
1569605767093.75,-59,-6,14,0,0,0,0,0
1569605767125,-59,-7,15,0,0,0,0,0
1569605767156.25,-57,-9,7,0,0,0,0,0
1569605767187.5,-60,-8,7,0,0,0,0,0
1569605767218.75,-65,-5,10,0,0,0,0,0
1569605767250,-71,-5,8,0,0,0,0,0
1569605767281.25,-82,-15,4,0,0,0,0,0
1569605767312.5,-85,-16,8,0,0,0,0,0
1569605767343.75,-67,-22,26,0,0,0,0,0
1569605767375,-37,-12,37,0,0,0,0,0
1569605767406.25,-47,-15,31,0,0,0,0,0
1569605767437.5,-81,-20,8,0,0,0,0,0
1569605767468.75,-68,-13,7,0,0,0,0,0
1569605767500,-51,-14,15,0,0,0,0,0
1569605767531.25,-56,-16,11,0,0,0,0,0
1569605767562.5,-48,-17,13,0,0,0,0,0
1569605767593.75,-46,-17,15,0,0,0,0,0
1569605767625,-53,-18,12,0,0,0,0,0
1569605767656.25,-57,-16,13,0,0,0,0,0
1569605767687.5,-52,-14,21,0,0,0,0,0
1569605767718.75,-53,-16,25,0,0,0,0,0
1569605767750,-50,-15,32,0,0,0,0,0
1569605767781.25,-51,-13,36,0,0,0,0,0
1569605767812.5,-46,-12,42,0,0,0,0,0
1569605767843.75,-24,-14,54,0,0,0,0,0
1569605767875,-26,-17,52,0,0,0,0,0
1569605767906.25,-15,-11,62,0,0,0,0,0
1569605767937.5,-14,-11,63,0,0,0,0,0
1569605767968.75,-15,-11,62,0,0,0,0,0
1569605768000,-18,-13,57,0,0,0,0,0
1569605768031.25,-18,-18,58,0,0,0,0,0
1569605768062.5,-22,-19,56,0,0,0,0,0
1569605768093.75,-25,-20,52,0,0,0,0,0
1569605768125,-28,-20,55,0,0,0,0,0
1569605768156.25,-26,-19,57,0,0,0,0,0
1569605768187.5,-30,-19,60,0,0,0,0,0
1569605768218.75,-30,-20,61,0,0,0,0,0
1569605768250,-18,-22,64,0,0,0,0,0
1569605768281.25,-8,-22,67,0,0,0,0,0
1569605768312.5,-10,-20,59,0,0,0,0,0
1569605768343.75,-9,-24,58,0,0,0,0,0
1569605768375,-5,-23,64,0,0,0,0,0
1569605768406.25,-16,-23,64,0,0,0,0,0
1569605768437.5,-31,-20,49,0,0,0,0,0
1569605768468.75,-28,-21,45,0,0,0,0,0
1569605768500,-22,-28,30,0,0,0,0,0
1569605768531.25,-42,-33,26,0,0,0,0,0
1569605768562.5,-58,-20,34,0,0,0,0,0
1569605768593.75,-47,-25,29,0,0,0,0,0
1569605768625,-42,-1,34,0,0,0,0,0
1569605768656.25,-42,-15,43,0,0,0,0,0
1569605768687.5,-52,-16,34,0,0,0,0,0
1569605768718.75,-46,-18,35,0,0,0,0,0
1569605768750,-46,-18,36,0,0,0,0,0
1569605768781.25,-49,-19,34,0,0,0,0,0
1569605768812.5,-47,-20,35,0,0,0,0,0
1569605768843.75,-49,-25,35,0,0,0,0,0
1569605768875,-47,-26,36,0,0,0,0,0
1569605768906.25,-49,-29,35,0,0,0,0,0
1569605768937.5,-48,-29,35,0,0,0,0,0
1569605768968.75,-49,-28,30,0,0,0,0,0
1569605769000,-55,-22,24,0,0,0,0,0
1569605769031.25,-60,-19,22,0,0,0,0,0
1569605769062.5,-42,-19,55,0,0,0,0,0
1569605769093.75,-60,-21,38,0,0,0,0,0
1569605769125,-55,-26,23,0,0,0,0,0
1569605769156.25,-50,-27,24,0,0,0,0,0
1569605769187.5,-50,-30,8,0,0,0,0,0
1569605769218.75,-51,-29,10,0,0,0,0,0
1569605769250,-58,-26,14,0,0,0,0,0
1569605769281.25,-63,-25,13,0,0,0,0,0
1569605769312.5,-58,-22,18,0,0,0,0,0
1569605769343.75,-56,-22,23,0,0,0,0,0
1569605769375,-49,-19,22,0,0,0,0,0
1569605769406.25,-53,-22,23,0,0,0,0,0
1569605769437.5,-42,-25,33,0,0,0,0,0
1569605769468.75,-48,-28,25,0,0,0,0,0
1569605769500,-52,-28,21,0,0,0,0,0
1569605769531.25,-45,-30,28,0,0,0,0,0
1569605769562.5,-45,-32,27,0,0,0,0,0
1569605769593.75,-45,-33,28,0,0,0,0,0
1569605769625,-42,-35,30,0,0,0,0,0
1569605769656.25,-44,-36,29,0,0,0,0,0
1569605769687.5,-47,-36,27,0,0,0,0,0
1569605769718.75,-44,-37,30,0,0,0,0,0
1569605769750,-42,-37,31,0,0,0,0,0
1569605769781.25,-41,-37,32,0,0,0,0,0
1569605769812.5,-40,-37,30,0,0,0,0,0
1569605769843.75,-41,-36,25,0,0,0,0,0
1569605769875,-43,-39,23,0,0,0,0,0
1569605769906.25,-44,-42,27,0,0,0,0,0
1569605769937.5,-39,-41,30,0,0,0,0,0
1569605769968.75,-38,-39,34,0,0,0,0,0
1569605770000,-38,-38,35,0,0,0,0,0
1569605770031.25,-38,-36,34,0,0,0,0,0
1569605770062.5,-40,-34,31,0,0,0,0,0
1569605770093.75,-41,-34,29,0,0,0,0,0
1569605770125,-44,-33,30,0,0,0,0,0
1569605770156.25,-42,-34,31,0,0,0,0,0
1569605770187.5,-44,-37,29,0,0,0,0,0
1569605770218.75,-43,-37,29,0,0,0,0,0
1569605770250,-39,-36,35,0,0,0,0,0
1569605770281.25,-40,-37,41,0,0,0,0,0
1569605770312.5,-32,-35,44,0,0,0,0,0
1569605770343.75,-34,-34,38,0,0,0,0,0
1569605770375,-35,-35,36,0,0,0,0,0
1569605770406.25,-36,-35,36,0,0,0,0,0
1569605770437.5,-38,-34,37,0,0,0,0,0
1569605770468.75,-40,-33,43,0,0,0,0,0
1569605770500,-34,-33,46,0,0,0,0,0
1569605770531.25,-30,-32,44,0,0,0,0,0
1569605770562.5,-35,-33,41,0,0,0,0,0
1569605770593.75,-32,-33,43,0,0,0,0,0
1569605770625,-35,-34,43,0,0,0,0,0
1569605770656.25,-33,-36,45,0,0,0,0,0
1569605770687.5,-33,-35,41,0,0,0,0,0
1569605770718.75,-31,-35,40,0,0,0,0,0
1569605770750,-31,-35,41,0,0,0,0,0
1569605770781.25,-27,-35,41,0,0,0,0,0
1569605770812.5,-30,-35,41,0,0,0,0,0
1569605770843.75,-33,-37,41,0,0,0,0,0
1569605770875,-34,-39,39,0,0,0,0,0
1569605770906.25,-36,-38,33,0,0,0,0,0
1569605770937.5,-27,-40,46,0,0,0,0,0
1569605770968.75,-19,-37,60,0,0,0,0,0
1569605771000,-35,-34,42,0,0,0,0,0
1569605771031.25,-28,-33,43,0,0,0,0,0
1569605771062.5,-23,-30,51,0,0,0,0,0
1569605771093.75,-30,-29,49,0,0,0,0,0
1569605771125,-23,-28,52,0,0,0,0,0
1569605771156.25,-22,-30,51,0,0,0,0,0
1569605771187.5,-25,-32,48,0,0,0,0,0
1569605771218.75,-30,-34,46,0,0,0,0,0
1569605771250,-24,-36,55,0,0,0,0,0
1569605771281.25,-28,-33,49,0,0,0,0,0
1569605771312.5,-31,-34,46,0,0,0,0,0
1569605771343.75,-27,-34,45,0,0,0,0,0
1569605771375,-23,-33,43,0,0,0,0,0
1569605771406.25,-14,-31,43,0,0,0,0,0
1569605771437.5,-20,-31,48,0,0,0,0,0
1569605771468.75,-22,-38,46,0,0,0,0,0
1569605771500,-27,-37,47,0,0,0,0,0
1569605771531.25,-22,-38,49,0,0,0,0,0
1569605771562.5,-24,-35,48,0,0,0,0,0
1569605771593.75,-21,-33,46,0,0,0,0,0
1569605771625,-22,-30,52,0,0,0,0,0
1569605771656.25,-29,-32,49,0,0,0,0,0
1569605771687.5,-35,-32,41,0,0,0,0,0
1569605771718.75,-38,-34,42,0,0,0,0,0
1569605771750,-31,-34,43,0,0,0,0,0
1569605771781.25,-28,-33,47,0,0,0,0,0
1569605771812.5,-32,-29,49,0,0,0,0,0
1569605771843.75,-33,-28,47,0,0,0,0,0
1569605771875,-39,-22,47,0,0,0,0,0
1569605771906.25,-33,-27,49,0,0,0,0,0
1569605771937.5,-31,-26,51,0,0,0,0,0
1569605771968.75,-18,-28,59,0,0,0,0,0
1569605772000,-22,-30,57,0,0,0,0,0
1569605772031.25,-12,-35,59,0,0,0,0,0
1569605772062.5,-13,-33,57,0,0,0,0,0
1569605772093.75,-16,-33,45,0,0,0,0,0
1569605772125,-24,-37,40,0,0,0,0,0
1569605772156.25,-34,-49,33,0,0,0,0,0
1569605772187.5,-38,-44,32,0,0,0,0,0
1569605772218.75,-28,-33,48,0,0,0,0,0
1569605772250,-36,-31,42,0,0,0,0,0
1569605772281.25,-37,-29,44,0,0,0,0,0
1569605772312.5,-34,-31,48,0,0,0,0,0
1569605772343.75,-35,-29,48,0,0,0,0,0
1569605772375,-44,-29,38,0,0,0,0,0
1569605772406.25,-40,-34,33,0,0,0,0,0
1569605772437.5,-41,-35,28,0,0,0,0,0
1569605772468.75,-45,-36,23,0,0,0,0,0
1569605772500,-42,-38,22,0,0,0,0,0
1569605772531.25,-43,-39,20,0,0,0,0,0
1569605772562.5,-44,-37,20,0,0,0,0,0
1569605772593.75,-46,-36,23,0,0,0,0,0
1569605772625,-37,-36,34,0,0,0,0,0
1569605772656.25,-31,-35,37,0,0,0,0,0
1569605772687.5,-51,-36,23,0,0,0,0,0
1569605772718.75,-47,-37,25,0,0,0,0,0
1569605772750,-41,-37,30,0,0,0,0,0
1569605772781.25,-41,-36,28,0,0,0,0,0
1569605772812.5,-43,-39,22,0,0,0,0,0
1569605772843.75,-49,-42,13,0,0,0,0,0
1569605772875,-43,-40,17,0,0,0,0,0
1569605772906.25,-41,-35,33,0,0,0,0,0
1569605772937.5,-43,-36,28,0,0,0,0,0
1569605772968.75,-48,-34,24,0,0,0,0,0
1569605773000,-46,-37,25,0,0,0,0,0
1569605773031.25,-48,-37,27,0,0,0,0,0
1569605773062.5,-49,-36,25,0,0,0,0,0
1569605773093.75,-44,-39,20,0,0,0,0,0
1569605773125,-45,-40,22,0,0,0,0,0
1569605773156.25,-42,-37,23,0,0,0,0,0
1569605773187.5,-45,-36,24,0,0,0,0,0
1569605773218.75,-40,-37,26,0,0,0,0,0
1569605773250,-40,-36,26,0,0,0,0,0
1569605773281.25,-41,-36,25,0,0,0,0,0
1569605773312.5,-48,-36,18,0,0,0,0,0
1569605773343.75,-47,-36,17,0,0,0,0,0
1569605773375,-53,-39,9,0,0,0,0,0
1569605773406.25,-57,-36,9,0,0,0,0,0
1569605773437.5,-51,-34,12,0,0,0,0,0
1569605773468.75,-51,-37,8,0,0,0,0,0
1569605773500,-52,-37,7,0,0,0,0,0
1569605773531.25,-54,-37,6,0,0,0,0,0
1569605773562.5,-54,-35,4,0,0,0,0,0
1569605773593.75,-67,-37,7,0,0,0,0,0
1569605773625,-66,-37,8,0,0,0,0,0
1569605773656.25,-52,-37,16,0,0,0,0,0
1569605773687.5,-40,-37,24,0,0,0,0,0
1569605773718.75,-38,-35,38,0,0,0,0,0
1569605773750,-41,-38,34,0,0,0,0,0
1569605773781.25,-6,-38,48,0,0,0,0,0
1569605773812.5,-20,-38,43,0,0,0,0,0
1569605773843.75,-35,-37,33,0,0,0,0,0
1569605773875,-29,-36,31,0,0,0,0,0
1569605773906.25,-40,-37,34,0,0,0,0,0
1569605773937.5,-45,-36,36,0,0,0,0,0
1569605773968.75,-31,-39,37,0,0,0,0,0
1569605774000,-30,-37,38,0,0,0,0,0
1569605774031.25,-30,-36,40,0,0,0,0,0
1569605774062.5,-38,-37,39,0,0,0,0,0
1569605774093.75,-38,-35,38,0,0,0,0,0
1569605774125,-42,-35,35,0,0,0,0,0
1569605774156.25,-43,-35,34,0,0,0,0,0
1569605774187.5,-42,-37,36,0,0,0,0,0
1569605774218.75,-41,-40,37,0,0,0,0,0
1569605774250,-47,-36,32,0,0,0,0,0
1569605774281.25,-36,-37,40,0,0,0,0,0
1569605774312.5,-36,-39,38,0,0,0,0,0
1569605774343.75,-35,-37,32,0,0,0,0,0
1569605774375,-35,-38,30,0,0,0,0,0
1569605774406.25,-32,-39,33,0,0,0,0,0
1569605774437.5,-32,-37,35,0,0,0,0,0
1569605774468.75,-31,-39,40,0,0,0,0,0
1569605774500,-34,-39,40,0,0,0,0,0
1569605774531.25,-45,-42,39,0,0,0,0,0
1569605774562.5,-43,-44,46,0,0,0,0,0
1569605774593.75,-37,-46,41,0,0,0,0,0
1569605774625,-44,-50,30,0,0,0,0,0
1569605774656.25,-44,-49,17,0,0,0,0,0
1569605774687.5,-38,-46,14,0,0,0,0,0
1569605774718.75,-31,-43,21,0,0,0,0,0
1569605774750,-26,-40,24,0,0,0,0,0
1569605774781.25,-15,-40,30,0,0,0,0,0
1569605774812.5,-10,-46,37,0,0,0,0,0
1569605774843.75,-10,-49,38,0,0,0,0,0
1569605774875,-16,-48,38,0,0,0,0,0
1569605774906.25,-15,-48,38,0,0,0,0,0
1569605774937.5,-19,-46,32,0,0,0,0,0
1569605774968.75,-19,-42,35,0,0,0,0,0
1569605775000,-16,-38,47,0,0,0,0,0
1569605775031.25,-14,-39,47,0,0,0,0,0
1569605775062.5,-11,-36,43,0,0,0,0,0
1569605775093.75,-7,-33,44,0,0,0,0,0
1569605775125,1,-56,43,0,0,0,0,0
1569605775156.25,-6,-49,43,0,0,0,0,0
1569605775187.5,-24,-41,43,0,0,0,0,0
1569605775218.75,-33,-69,35,0,0,0,0,0
1569605775250,-31,-37,40,0,0,0,0,0
1569605775281.25,-30,-48,45,0,0,0,0,0
1569605775312.5,-33,-46,41,0,0,0,0,0
1569605775343.75,-35,-42,40,0,0,0,0,0
1569605775375,-30,-43,42,0,0,0,0,0
1569605775406.25,-20,-51,37,0,0,0,0,0
1569605775437.5,-17,-47,36,0,0,0,0,0
1569605775468.75,-6,-35,42,0,0,0,0,0
1569605775500,-16,-29,43,0,0,0,0,0
1569605775531.25,-24,-18,51,0,0,0,0,0
1569605775562.5,-23,-16,54,0,0,0,0,0
1569605775593.75,-39,-9,46,0,0,0,0,0
1569605775625,-46,-1,43,0,0,0,0,0
1569605775656.25,-49,3,47,0,0,0,0,0
1569605775687.5,-62,6,40,0,0,0,0,0
1569605775718.75,-67,4,36,0,0,0,0,0
1569605775750,-58,1,40,0,0,0,0,0
1569605775781.25,-54,0,43,0,0,0,0,0
1569605775812.5,-53,-1,40,0,0,0,0,0
1569605775843.75,-46,-4,40,0,0,0,0,0
1569605775875,-54,-6,35,0,0,0,0,0
1569605775906.25,-51,-8,34,0,0,0,0,0
1569605775937.5,-48,-11,39,0,0,0,0,0
1569605775968.75,-49,-12,39,0,0,0,0,0
1569605776000,-50,-8,41,0,0,0,0,0
1569605776031.25,-61,-6,41,0,0,0,0,0
1569605776062.5,-60,0,38,0,0,0,0,0
1569605776093.75,-31,-1,35,0,0,0,0,0
1569605776125,0,-7,40,0,0,0,0,0
1569605776156.25,62,-8,76,0,0,0,0,0
1569605776187.5,58,-6,76,0,0,0,0,0
1569605776218.75,0,-24,53,0,0,0,0,0
1569605776250,-24,-36,37,0,0,0,0,0
1569605776281.25,-22,-36,44,0,0,0,0,0
1569605776312.5,-17,-28,54,0,0,0,0,0
1569605776343.75,-21,-20,60,0,0,0,0,0
1569605776375,-18,-14,64,0,0,0,0,0
1569605776406.25,-16,-5,61,0,0,0,0,0
1569605776437.5,-24,5,88,0,0,0,0,0
1569605776468.75,-78,-9,48,0,0,0,0,0
1569605776500,7,-8,60,0,0,0,0,0
1569605776531.25,3,-8,63,0,0,0,0,0
1569605776562.5,15,-5,89,0,0,0,0,0
1569605776593.75,12,-5,85,0,0,0,0,0
1569605776625,3,-6,77,0,0,0,0,0
1569605776656.25,1,-7,71,0,0,0,0,0
1569605776687.5,6,-11,50,0,0,0,0,0
1569605776718.75,-17,-14,30,0,0,0,0,0
1569605776750,-46,-22,19,0,0,0,0,0
1569605776781.25,-76,-38,3,0,0,0,0,0
1569605776812.5,-21,-40,32,0,0,0,0,0
1569605776843.75,10,-15,65,0,0,0,0,0
1569605776875,2,-11,61,0,0,0,0,0
1569605776906.25,-13,-7,50,0,0,0,0,0
1569605776937.5,-14,-5,44,0,0,0,0,0
1569605776968.75,-14,11,40,0,0,0,0,0
1569605777000,-40,15,42,0,0,0,0,0
1569605777031.25,-53,1,43,0,0,0,0,0
1569605777062.5,-60,5,48,0,0,0,0,0
1569605777093.75,-62,9,63,0,0,0,0,0
1569605777125,-51,10,47,0,0,0,0,0
1569605777156.25,-60,9,40,0,0,0,0,0
1569605777187.5,-26,21,59,0,0,0,0,0
1569605777218.75,-54,8,42,0,0,0,0,0
1569605777250,-83,1,22,0,0,0,0,0
1569605777281.25,-74,3,20,0,0,0,0,0
1569605777312.5,-70,8,22,0,0,0,0,0
1569605777343.75,-60,9,27,0,0,0,0,0
1569605777375,-51,8,39,0,0,0,0,0
1569605777406.25,-50,5,38,0,0,0,0,0
1569605777437.5,-39,6,40,0,0,0,0,0
1569605777468.75,-33,9,49,0,0,0,0,0
1569605777500,-18,11,59,0,0,0,0,0
1569605777531.25,-13,10,73,0,0,0,0,0
1569605777562.5,-41,11,59,0,0,0,0,0
1569605777593.75,-43,6,55,0,0,0,0,0
1569605777625,-43,7,46,0,0,0,0,0
1569605777656.25,-34,5,54,0,0,0,0,0
1569605777687.5,-39,2,52,0,0,0,0,0
1569605777718.75,-49,0,47,0,0,0,0,0
1569605777750,-44,-2,43,0,0,0,0,0
1569605777781.25,-32,1,44,0,0,0,0,0
1569605777812.5,-33,6,52,0,0,0,0,0
1569605777843.75,-37,6,57,0,0,0,0,0
1569605777875,-36,4,63,0,0,0,0,0
1569605777906.25,-31,-2,68,0,0,0,0,0
1569605777937.5,-25,-1,64,0,0,0,0,0
1569605777968.75,-24,3,60,0,0,0,0,0
1569605778000,-22,0,57,0,0,0,0,0
1569605778031.25,-22,0,55,0,0,0,0,0
1569605778062.5,-30,0,50,0,0,0,0,0
1569605778093.75,-34,3,51,0,0,0,0,0
1569605778125,-34,6,57,0,0,0,0,0
1569605778156.25,-31,7,59,0,0,0,0,0
1569605778187.5,-29,4,59,0,0,0,0,0
1569605778218.75,-27,3,59,0,0,0,0,0
1569605778250,-27,2,56,0,0,0,0,0
1569605778281.25,-29,2,56,0,0,0,0,0
1569605778312.5,-32,1,50,0,0,0,0,0
1569605778343.75,-27,2,53,0,0,0,0,0
1569605778375,-14,5,64,0,0,0,0,0
1569605778406.25,-14,6,66,0,0,0,0,0
1569605778437.5,-20,6,62,0,0,0,0,0
1569605778468.75,-19,4,62,0,0,0,0,0
1569605778500,-14,4,63,0,0,0,0,0
1569605778531.25,-18,4,63,0,0,0,0,0
1569605778562.5,-16,4,63,0,0,0,0,0
1569605778593.75,-15,7,64,0,0,0,0,0
1569605778625,-20,5,62,0,0,0,0,0
1569605778656.25,-26,3,56,0,0,0,0,0
1569605778687.5,-24,3,57,0,0,0,0,0
1569605778718.75,-22,2,59,0,0,0,0,0
1569605778750,-23,3,61,0,0,0,0,0
1569605778781.25,-28,6,61,0,0,0,0,0
1569605778812.5,-24,6,63,0,0,0,0,0
1569605778843.75,-19,4,65,0,0,0,0,0
1569605778875,-24,1,61,0,0,0,0,0
1569605778906.25,-20,-6,57,0,0,0,0,0
1569605778937.5,-20,-7,53,0,0,0,0,0
1569605778968.75,-21,-6,54,0,0,0,0,0
1569605779000,-26,-3,56,0,0,0,0,0
1569605779031.25,-25,-1,60,0,0,0,0,0
1569605779062.5,-29,-1,60,0,0,0,0,0
1569605779093.75,-27,0,62,0,0,0,0,0
1569605779125,-21,3,62,0,0,0,0,0
1569605779156.25,-26,-3,58,0,0,0,0,0
1569605779187.5,-17,-5,60,0,0,0,0,0
1569605779218.75,-10,-7,64,0,0,0,0,0
1569605779250,-3,-2,72,0,0,0,0,0
1569605779281.25,-4,-1,74,0,0,0,0,0
1569605779312.5,-59,3,38,0,0,0,0,0
1569605779343.75,-34,-8,53,0,0,0,0,0
1569605779375,-33,-8,53,0,0,0,0,0
1569605779406.25,-26,-5,47,0,0,0,0,0
1569605779437.5,-26,-8,46,0,0,0,0,0
1569605779468.75,-30,-10,53,0,0,0,0,0
1569605779500,-20,-8,60,0,0,0,0,0
1569605779531.25,-32,-6,48,0,0,0,0,0
1569605779562.5,-43,-9,38,0,0,0,0,0
1569605779593.75,-44,-1,56,0,0,0,0,0
1569605779625,-43,2,60,0,0,0,0,0
1569605779656.25,-41,-5,60,0,0,0,0,0
1569605779687.5,-49,-6,31,0,0,0,0,0
1569605779718.75,-42,-10,37,0,0,0,0,0
1569605779750,-47,-13,45,0,0,0,0,0
1569605779781.25,-47,-12,44,0,0,0,0,0
1569605779812.5,-45,-4,43,0,0,0,0,0
1569605779843.75,-49,-6,41,0,0,0,0,0
1569605779875,-50,-6,42,0,0,0,0,0
1569605779906.25,-44,-6,44,0,0,0,0,0
1569605779937.5,-39,-9,38,0,0,0,0,0
1569605779968.75,-28,-6,45,0,0,0,0,0
1569605780000,-15,-6,58,0,0,0,0,0
1569605780031.25,-13,-2,73,0,0,0,0,0
1569605780062.5,-18,-3,68,0,0,0,0,0
1569605780093.75,-24,-3,62,0,0,0,0,0
1569605780125,-30,-4,62,0,0,0,0,0
1569605780156.25,-32,-3,60,0,0,0,0,0
1569605780187.5,-29,0,62,0,0,0,0,0
1569605780218.75,-23,-5,59,0,0,0,0,0
1569605780250,-29,-9,55,0,0,0,0,0
1569605780281.25,-31,-12,59,0,0,0,0,0
1569605780312.5,-33,-13,52,0,0,0,0,0
1569605780343.75,-33,-13,40,0,0,0,0,0
1569605780375,-25,-13,42,0,0,0,0,0
1569605780406.25,-14,-11,63,0,0,0,0,0
1569605780437.5,-17,-9,65,0,0,0,0,0
1569605780468.75,-22,-6,57,0,0,0,0,0
1569605780500,-22,-5,58,0,0,0,0,0
1569605780531.25,-30,-9,57,0,0,0,0,0
1569605780562.5,-32,-7,56,0,0,0,0,0
1569605780593.75,-25,-8,59,0,0,0,0,0
1569605780625,-23,-7,56,0,0,0,0,0
1569605780656.25,-27,-8,56,0,0,0,0,0
1569605780687.5,-30,-8,59,0,0,0,0,0
1569605780718.75,-35,-7,52,0,0,0,0,0
1569605780750,-27,-4,62,0,0,0,0,0
1569605780781.25,-24,-5,63,0,0,0,0,0
1569605780812.5,-24,-4,61,0,0,0,0,0
1569605780843.75,-25,-4,62,0,0,0,0,0
1569605780875,-27,-5,54,0,0,0,0,0
1569605780906.25,-30,-7,54,0,0,0,0,0
1569605780937.5,-29,-7,55,0,0,0,0,0
1569605780968.75,-30,-4,58,0,0,0,0,0
1569605781000,-26,-6,63,0,0,0,0,0
1569605781031.25,-30,-5,54,0,0,0,0,0
1569605781062.5,-36,-6,59,0,0,0,0,0
1569605781093.75,-32,-3,52,0,0,0,0,0
1569605781125,-35,-3,52,0,0,0,0,0
1569605781156.25,-39,-4,51,0,0,0,0,0
1569605781187.5,-38,-5,53,0,0,0,0,0
1569605781218.75,-36,-6,49,0,0,0,0,0
1569605781250,-35,-7,50,0,0,0,0,0
1569605781281.25,-35,-7,53,0,0,0,0,0
1569605781312.5,-36,-7,55,0,0,0,0,0
1569605781343.75,-34,-2,54,0,0,0,0,0
1569605781375,-23,-7,55,0,0,0,0,0
1569605781406.25,-30,-8,50,0,0,0,0,0
1569605781437.5,-49,-6,39,0,0,0,0,0
1569605781468.75,-51,-7,36,0,0,0,0,0
1569605781500,-50,-3,48,0,0,0,0,0
1569605781531.25,-49,-2,47,0,0,0,0,0
1569605781562.5,-52,-1,36,0,0,0,0,0
1569605781593.75,-52,-2,38,0,0,0,0,0
1569605781625,-49,-4,40,0,0,0,0,0
1569605781656.25,-55,-7,37,0,0,0,0,0
1569605781687.5,-45,-6,38,0,0,0,0,0
1569605781718.75,-42,-7,40,0,0,0,0,0
1569605781750,-40,-9,51,0,0,0,0,0
1569605781781.25,-47,-6,42,0,0,0,0,0
1569605781812.5,-55,-5,39,0,0,0,0,0
1569605781843.75,-44,-1,47,0,0,0,0,0
1569605781875,-46,-3,44,0,0,0,0,0
1569605781906.25,-45,-5,41,0,0,0,0,0
1569605781937.5,-43,-7,47,0,0,0,0,0
1569605781968.75,-43,-8,47,0,0,0,0,0
1569605782000,-40,-5,47,0,0,0,0,0
1569605782031.25,-40,-4,47,0,0,0,0,0
1569605782062.5,-42,-4,50,0,0,0,0,0
1569605782093.75,-40,-4,49,0,0,0,0,0
1569605782125,-39,-4,49,0,0,0,0,0
1569605782156.25,-40,-5,47,0,0,0,0,0
1569605782187.5,-43,-4,49,0,0,0,0,0
1569605782218.75,-41,-4,50,0,0,0,0,0
1569605782250,-44,-4,46,0,0,0,0,0
1569605782281.25,-44,-4,45,0,0,0,0,0
1569605782312.5,-41,-5,48,0,0,0,0,0
1569605782343.75,-41,-6,48,0,0,0,0,0
1569605782375,-40,-6,49,0,0,0,0,0
1569605782406.25,-40,-5,50,0,0,0,0,0
1569605782437.5,-37,-6,54,0,0,0,0,0
1569605782468.75,-39,-4,50,0,0,0,0,0
1569605782500,-40,-3,51,0,0,0,0,0
1569605782531.25,-40,-3,52,0,0,0,0,0
1569605782562.5,-37,-3,52,0,0,0,0,0
1569605782593.75,-35,-7,52,0,0,0,0,0
1569605782625,-34,-8,51,0,0,0,0,0
1569605782656.25,-39,-9,50,0,0,0,0,0
1569605782687.5,-39,-9,50,0,0,0,0,0
1569605782718.75,-41,-8,47,0,0,0,0,0
1569605782750,-39,-6,47,0,0,0,0,0
1569605782781.25,-41,-6,48,0,0,0,0,0
1569605782812.5,-45,-7,45,0,0,0,0,0
1569605782843.75,-40,-8,47,0,0,0,0,0
1569605782875,-41,-8,49,0,0,0,0,0
1569605782906.25,-39,-7,51,0,0,0,0,0
1569605782937.5,-39,-7,52,0,0,0,0,0
1569605782968.75,-37,-6,56,0,0,0,0,0
1569605783000,-39,-7,51,0,0,0,0,0
1569605783031.25,-43,-8,45,0,0,0,0,0
1569605783062.5,-35,-8,50,0,0,0,0,0
1569605783093.75,-32,-8,54,0,0,0,0,0
1569605783125,-26,-8,58,0,0,0,0,0
1569605783156.25,-25,-9,58,0,0,0,0,0
1569605783187.5,-23,-9,57,0,0,0,0,0
1569605783218.75,-25,-10,55,0,0,0,0,0
1569605783250,-32,-9,54,0,0,0,0,0
1569605783281.25,-37,-10,50,0,0,0,0,0
1569605783312.5,-34,-10,55,0,0,0,0,0
1569605783343.75,-34,-9,56,0,0,0,0,0
1569605783375,-32,-9,55,0,0,0,0,0
1569605783406.25,-31,-9,54,0,0,0,0,0
1569605783437.5,-29,-11,55,0,0,0,0,0
1569605783468.75,-27,-9,56,0,0,0,0,0
1569605783500,-27,-10,57,0,0,0,0,0
1569605783531.25,-30,-8,58,0,0,0,0,0
1569605783562.5,-33,-9,55,0,0,0,0,0
1569605783593.75,-33,-10,54,0,0,0,0,0
1569605783625,-30,-9,56,0,0,0,0,0
1569605783656.25,-28,-9,56,0,0,0,0,0
1569605783687.5,-28,-10,56,0,0,0,0,0
1569605783718.75,-29,-10,56,0,0,0,0,0
1569605783750,-35,-10,48,0,0,0,0,0
1569605783781.25,-34,-13,44,0,0,0,0,0
1569605783812.5,-28,-11,51,0,0,0,0,0
1569605783843.75,-21,-8,65,0,0,0,0,0
1569605783875,-26,-6,64,0,0,0,0,0
1569605783906.25,-26,-6,66,0,0,0,0,0
1569605783937.5,-20,-7,62,0,0,0,0,0
1569605783968.75,-23,-7,56,0,0,0,0,0
1569605784000,-32,-11,54,0,0,0,0,0
1569605784031.25,-35,-12,49,0,0,0,0,0
1569605784062.5,-39,-11,47,0,0,0,0,0
1569605784093.75,-33,-11,55,0,0,0,0,0
1569605784125,-31,-9,54,0,0,0,0,0
1569605784156.25,-34,-11,51,0,0,0,0,0
1569605784187.5,-36,-10,51,0,0,0,0,0
1569605784218.75,-37,-9,51,0,0,0,0,0
1569605784250,-37,-10,52,0,0,0,0,0
1569605784281.25,-35,-10,52,0,0,0,0,0
1569605784312.5,-34,-9,53,0,0,0,0,0
1569605784343.75,-35,-10,52,0,0,0,0,0
1569605784375,-35,-10,52,0,0,0,0,0
1569605784406.25,-36,-10,51,0,0,0,0,0
1569605784437.5,-35,-10,51,0,0,0,0,0
1569605784468.75,-32,-11,49,0,0,0,0,0
1569605784500,-38,-11,47,0,0,0,0,0
1569605784531.25,-25,-9,57,0,0,0,0,0
1569605784562.5,-24,-7,61,0,0,0,0,0
1569605784593.75,-25,-9,58,0,0,0,0,0
1569605784625,-30,-8,56,0,0,0,0,0
1569605784656.25,-32,-8,57,0,0,0,0,0
1569605784687.5,-28,-8,56,0,0,0,0,0
1569605784718.75,-29,-9,53,0,0,0,0,0
1569605784750,-26,-8,56,0,0,0,0,0
1569605784781.25,-25,-8,58,0,0,0,0,0
1569605784812.5,-22,-4,63,0,0,0,0,0
1569605784843.75,-23,-3,62,0,0,0,0,0
1569605784875,-30,-6,57,0,0,0,0,0
1569605784906.25,-27,-6,59,0,0,0,0,0
1569605784937.5,-23,-5,60,0,0,0,0,0
1569605784968.75,-24,-6,60,0,0,0,0,0
1569605785000,-25,-7,59,0,0,0,0,0
1569605785031.25,-29,-8,55,0,0,0,0,0
1569605785062.5,-35,-10,52,0,0,0,0,0
1569605785093.75,-23,-7,59,0,0,0,0,0
1569605785125,-21,-5,64,0,0,0,0,0
1569605785156.25,-23,-6,62,0,0,0,0,0
1569605785187.5,-19,-6,60,0,0,0,0,0
1569605785218.75,-25,-7,57,0,0,0,0,0
1569605785250,-25,-8,59,0,0,0,0,0
1569605785281.25,-30,-7,56,0,0,0,0,0
1569605785312.5,-27,-7,57,0,0,0,0,0
1569605785343.75,-31,-7,55,0,0,0,0,0
1569605785375,-28,-7,57,0,0,0,0,0
1569605785406.25,-24,-7,56,0,0,0,0,0
1569605785437.5,-25,-8,55,0,0,0,0,0
1569605785468.75,-27,-10,53,0,0,0,0,0
1569605785500,-35,-8,50,0,0,0,0,0
1569605785531.25,-37,-7,54,0,0,0,0,0
1569605785562.5,-33,-4,60,0,0,0,0,0
1569605785593.75,-34,-4,58,0,0,0,0,0
1569605785625,-31,-5,56,0,0,0,0,0
1569605785656.25,-28,-6,57,0,0,0,0,0
1569605785687.5,-31,-8,55,0,0,0,0,0
1569605785718.75,-32,-8,53,0,0,0,0,0
1569605785750,-31,-8,51,0,0,0,0,0
1569605785781.25,-27,-8,56,0,0,0,0,0
1569605785812.5,-29,-6,58,0,0,0,0,0
1569605785843.75,-32,-6,56,0,0,0,0,0
1569605785875,-35,-6,53,0,0,0,0,0
1569605785906.25,-32,-6,55,0,0,0,0,0
1569605785937.5,-32,-6,56,0,0,0,0,0
1569605785968.75,-32,-6,57,0,0,0,0,0
1569605786000,-31,-5,56,0,0,0,0,0
1569605786031.25,-29,-5,55,0,0,0,0,0
1569605786062.5,-24,-7,59,0,0,0,0,0
1569605786093.75,-24,-6,59,0,0,0,0,0
1569605786125,-27,-6,56,0,0,0,0,0
1569605786156.25,-29,-6,58,0,0,0,0,0
1569605786187.5,-32,-6,58,0,0,0,0,0
1569605786218.75,-32,-5,55,0,0,0,0,0
1569605786250,-30,-5,55,0,0,0,0,0
1569605786281.25,-31,-5,56,0,0,0,0,0
1569605786312.5,-31,-5,56,0,0,0,0,0
1569605786343.75,-31,-5,56,0,0,0,0,0
1569605786375,-31,-5,57,0,0,0,0,0
1569605786406.25,-30,-5,57,0,0,0,0,0
1569605786437.5,-29,-6,55,0,0,0,0,0
1569605786468.75,-30,-6,55,0,0,0,0,0
1569605786500,-31,-6,54,0,0,0,0,0
1569605786531.25,-32,-7,55,0,0,0,0,0
1569605786562.5,-30,-5,55,0,0,0,0,0
1569605786593.75,-30,-5,56,0,0,0,0,0
1569605786625,-30,-5,57,0,0,0,0,0
1569605786656.25,-29,-6,56,0,0,0,0,0
1569605786687.5,-30,-5,58,0,0,0,0,0
1569605786718.75,-31,-5,56,0,0,0,0,0
1569605786750,-30,-5,56,0,0,0,0,0
1569605786781.25,-29,-6,56,0,0,0,0,0
1569605786812.5,-30,-6,55,0,0,0,0,0
1569605786843.75,-32,-7,54,0,0,0,0,0
1569605786875,-31,-6,55,0,0,0,0,0
1569605786906.25,-30,-5,56,0,0,0,0,0
1569605786937.5,-31,-6,56,0,0,0,0,0
1569605786968.75,-30,-6,58,0,0,0,0,0
1569605787000,-29,-6,56,0,0,0,0,0
1569605787031.25,-29,-7,56,0,0,0,0,0
1569605787062.5,-28,-6,53,0,0,0,0,0
1569605787093.75,-30,-6,55,0,0,0,0,0
1569605787125,-31,-6,56,0,0,0,0,0
1569605787156.25,-31,-6,56,0,0,0,0,0
1569605787187.5,-30,-6,56,0,0,0,0,0
1569605787218.75,-31,-6,56,0,0,0,0,0
1569605787250,-30,-6,56,0,0,0,0,0
1569605787281.25,-31,-6,56,0,0,0,0,0
1569605787312.5,-29,-6,56,0,0,0,0,0
1569605787343.75,-31,-6,55,0,0,0,0,0
1569605787375,-30,-7,54,0,0,0,0,0
1569605787406.25,-30,-6,53,0,0,0,0,0
1569605787437.5,-30,-7,56,0,0,0,0,0
1569605787468.75,-30,-6,57,0,0,0,0,0
1569605787500,-30,-5,56,0,0,0,0,0
1569605787531.25,-31,-6,56,0,0,0,0,0
1569605787562.5,-31,-6,56,0,0,0,0,0
1569605787593.75,-30,-6,57,0,0,0,0,0
1569605787625,-29,-5,57,0,0,0,0,0
1569605787656.25,-30,-6,56,0,0,0,0,0
1569605787687.5,-30,-7,57,0,0,0,0,0
1569605787718.75,-30,-6,55,0,0,0,0,0
1569605787750,-30,-6,55,0,0,0,0,0
1569605787781.25,-30,-6,56,0,0,0,0,0
1569605787812.5,-31,-6,56,0,0,0,0,0
1569605787843.75,-30,-6,56,0,0,0,0,0
1569605787875,-30,-6,56,0,0,0,0,0
1569605787906.25,-30,-7,55,0,0,0,0,0
1569605787937.5,-29,-7,56,0,0,0,0,0
1569605787968.75,-29,-7,56,0,0,0,0,0
1569605788000,-30,-6,56,0,0,0,0,0
1569605788031.25,-30,-6,56,0,0,0,0,0
1569605788062.5,-30,-6,56,0,0,0,0,0
1569605788093.75,-31,-6,57,0,0,0,0,0
1569605788125,-32,-7,56,0,0,0,0,0
1569605788156.25,-31,-7,57,0,0,0,0,0
1569605788187.5,-27,-6,58,0,0,0,0,0
1569605788218.75,-28,-6,56,0,0,0,0,0
1569605788250,-29,-8,55,0,0,0,0,0
1569605788281.25,-30,-9,52,0,0,0,0,0
1569605788312.5,-30,-8,52,0,0,0,0,0
1569605788343.75,-30,-6,52,0,0,0,0,0
1569605788375,-31,-5,52,0,0,0,0,0
1569605788406.25,-35,-2,55,0,0,0,0,0
1569605788437.5,-38,-1,55,0,0,0,0,0
1569605788468.75,-36,-5,58,0,0,0,0,0
1569605788500,-33,-8,56,0,0,0,0,0
1569605788531.25,-19,-4,56,0,0,0,0,0
1569605788562.5,-16,0,59,0,0,0,0,0
1569605788593.75,-29,-1,58,0,0,0,0,0
1569605788625,-37,-3,56,0,0,0,0,0
1569605788656.25,-37,-6,55,0,0,0,0,0
1569605788687.5,-31,-6,59,0,0,0,0,0
1569605788718.75,-32,2,67,0,0,0,0,0
1569605788750,-38,7,56,0,0,0,0,0
1569605788781.25,-46,2,50,0,0,0,0,0
1569605788812.5,-47,13,40,0,0,0,0,0
1569605788843.75,-47,14,36,0,0,0,0,0
1569605788875,-37,13,38,0,0,0,0,0
1569605788906.25,-38,14,37,0,0,0,0,0
1569605788937.5,-39,17,37,0,0,0,0,0
1569605788968.75,-41,16,41,0,0,0,0,0
1569605789000,-43,13,41,0,0,0,0,0
1569605789031.25,-45,11,39,0,0,0,0,0
1569605789062.5,-47,5,37,0,0,0,0,0
1569605789093.75,-76,2,53,0,0,0,0,0
1569605789125,-54,4,51,0,0,0,0,0
1569605789156.25,-40,1,57,0,0,0,0,0
1569605789187.5,-39,1,59,0,0,0,0,0
1569605789218.75,-36,11,55,0,0,0,0,0
1569605789250,-34,9,55,0,0,0,0,0
1569605789281.25,-35,5,55,0,0,0,0,0
1569605789312.5,-40,0,46,0,0,0,0,0
1569605789343.75,-42,-7,39,0,0,0,0,0
1569605789375,-35,-8,42,0,0,0,0,0
1569605789406.25,-27,-3,48,0,0,0,0,0
1569605789437.5,-28,0,52,0,0,0,0,0
1569605789468.75,-36,2,56,0,0,0,0,0
1569605789500,-41,3,57,0,0,0,0,0
1569605789531.25,-43,3,56,0,0,0,0,0
1569605789562.5,-39,3,56,0,0,0,0,0
1569605789593.75,-34,0,54,0,0,0,0,0
1569605789625,-35,-2,50,0,0,0,0,0
1569605789656.25,-35,-3,49,0,0,0,0,0
1569605789687.5,-33,-3,53,0,0,0,0,0
1569605789718.75,-30,-1,56,0,0,0,0,0
1569605789750,-35,0,56,0,0,0,0,0
1569605789781.25,-36,0,54,0,0,0,0,0
1569605789812.5,-26,-2,62,0,0,0,0,0
1569605789843.75,-27,-4,64,0,0,0,0,0
1569605789875,-33,-4,55,0,0,0,0,0
1569605789906.25,-22,-5,56,0,0,0,0,0
1569605789937.5,-48,-7,29,0,0,0,0,0
1569605789968.75,-52,-11,43,0,0,0,0,0
1569605790000,-60,-7,39,0,0,0,0,0
1569605790031.25,-48,-7,43,0,0,0,0,0
1569605790062.5,-48,-4,43,0,0,0,0,0
1569605790093.75,-47,-5,41,0,0,0,0,0
1569605790125,-48,-5,41,0,0,0,0,0
1569605790156.25,-50,-6,39,0,0,0,0,0
1569605790187.5,-50,-6,38,0,0,0,0,0
1569605790218.75,-50,-6,38,0,0,0,0,0
1569605790250,-50,-6,38,0,0,0,0,0
1569605790281.25,-51,-7,36,0,0,0,0,0
1569605790312.5,-54,-10,34,0,0,0,0,0
1569605790343.75,-49,-5,32,0,0,0,0,0
1569605790375,-46,-10,45,0,0,0,0,0
1569605790406.25,-54,-7,38,0,0,0,0,0
1569605790437.5,-40,0,49,0,0,0,0,0
1569605790468.75,-38,-1,57,0,0,0,0,0
1569605790500,-25,-4,59,0,0,0,0,0
1569605790531.25,-18,-6,51,0,0,0,0,0
1569605790562.5,-41,-8,49,0,0,0,0,0
1569605790593.75,-33,-6,58,0,0,0,0,0
1569605790625,-31,-4,53,0,0,0,0,0
1569605790656.25,-38,-5,52,0,0,0,0,0
1569605790687.5,-36,-2,54,0,0,0,0,0
1569605790718.75,-35,0,55,0,0,0,0,0
1569605790750,-34,-2,57,0,0,0,0,0
1569605790781.25,-27,-3,61,0,0,0,0,0
1569605790812.5,-30,-3,59,0,0,0,0,0
1569605790843.75,-34,-6,50,0,0,0,0,0
1569605790875,-34,-7,47,0,0,0,0,0
1569605790906.25,-31,-7,48,0,0,0,0,0
1569605790937.5,-30,-6,49,0,0,0,0,0
1569605790968.75,-41,3,51,0,0,0,0,0
1569605791000,-52,4,50,0,0,0,0,0
1569605791031.25,-67,2,46,0,0,0,0,0
1569605791062.5,-49,-9,40,0,0,0,0,0
1569605791093.75,-26,-13,40,0,0,0,0,0
1569605791125,-20,6,59,0,0,0,0,0
1569605791156.25,2,5,88,0,0,0,0,0
1569605791187.5,5,1,78,0,0,0,0,0
1569605791218.75,9,2,64,0,0,0,0,0
1569605791250,-3,-4,53,0,0,0,0,0
1569605791281.25,-6,-10,58,0,0,0,0,0
1569605791312.5,-9,-10,59,0,0,0,0,0
1569605791343.75,-19,-6,58,0,0,0,0,0
1569605791375,-31,0,53,0,0,0,0,0
1569605791406.25,-26,-2,56,0,0,0,0,0
1569605791437.5,-21,-2,66,0,0,0,0,0
1569605791468.75,-23,-3,66,0,0,0,0,0
1569605791500,-32,-5,59,0,0,0,0,0
1569605791531.25,-36,-4,55,0,0,0,0,0
1569605791562.5,-29,-1,52,0,0,0,0,0
1569605791593.75,-30,-1,57,0,0,0,0,0
1569605791625,-29,-3,56,0,0,0,0,0
1569605791656.25,-30,-6,57,0,0,0,0,0
1569605791687.5,-26,-6,58,0,0,0,0,0
1569605791718.75,-27,-5,57,0,0,0,0,0
1569605791750,-28,-4,56,0,0,0,0,0
1569605791781.25,-34,-3,55,0,0,0,0,0
1569605791812.5,-34,-2,56,0,0,0,0,0
1569605791843.75,-35,-3,55,0,0,0,0,0
1569605791875,-37,-4,51,0,0,0,0,0
1569605791906.25,-37,-2,51,0,0,0,0,0
1569605791937.5,-41,-3,53,0,0,0,0,0
1569605791968.75,-29,-4,59,0,0,0,0,0
1569605792000,-25,-6,54,0,0,0,0,0
1569605792031.25,-30,-7,52,0,0,0,0,0
1569605792062.5,-42,-8,51,0,0,0,0,0
1569605792093.75,-47,-5,48,0,0,0,0,0
1569605792125,-44,19,76,0,0,0,0,0
1569605792156.25,-29,3,64,0,0,0,0,0
1569605792187.5,-19,-28,38,0,0,0,0,0
1569605792218.75,-36,-27,34,0,0,0,0,0
1569605792250,-13,-5,54,0,0,0,0,0
1569605792281.25,-14,-4,62,0,0,0,0,0
1569605792312.5,-36,-8,63,0,0,0,0,0
1569605792343.75,-46,-8,52,0,0,0,0,0
1569605792375,-29,-9,59,0,0,0,0,0
1569605792406.25,-34,-7,57,0,0,0,0,0
1569605792437.5,-39,-9,51,0,0,0,0,0
1569605792468.75,-41,-12,43,0,0,0,0,0
1569605792500,-42,-12,40,0,0,0,0,0
1569605792531.25,-37,-14,46,0,0,0,0,0
1569605792562.5,-36,-14,48,0,0,0,0,0
1569605792593.75,-37,-8,52,0,0,0,0,0
1569605792625,-35,-9,55,0,0,0,0,0
1569605792656.25,-48,-12,43,0,0,0,0,0
1569605792687.5,-51,-11,42,0,0,0,0,0
1569605792718.75,-44,-11,41,0,0,0,0,0
1569605792750,-48,-12,37,0,0,0,0,0
1569605792781.25,-51,-13,36,0,0,0,0,0
1569605792812.5,-51,-12,35,0,0,0,0,0
1569605792843.75,-49,-12,39,0,0,0,0,0
1569605792875,-47,-12,40,0,0,0,0,0
1569605792906.25,-47,-12,41,0,0,0,0,0
1569605792937.5,-50,-14,36,0,0,0,0,0
1569605792968.75,-45,-11,35,0,0,0,0,0
1569605793000,-29,-11,43,0,0,0,0,0
1569605793031.25,-13,-8,65,0,0,0,0,0
1569605793062.5,-18,-5,68,0,0,0,0,0
1569605793093.75,-29,-7,58,0,0,0,0,0
1569605793125,-20,-7,61,0,0,0,0,0
1569605793156.25,-19,-5,61,0,0,0,0,0
1569605793187.5,-38,-4,57,0,0,0,0,0
1569605793218.75,-32,-2,62,0,0,0,0,0
1569605793250,-26,-1,62,0,0,0,0,0
1569605793281.25,-30,-7,58,0,0,0,0,0
1569605793312.5,-26,-5,58,0,0,0,0,0
1569605793343.75,-33,-5,61,0,0,0,0,0
1569605793375,-33,-6,59,0,0,0,0,0
1569605793406.25,-24,-9,53,0,0,0,0,0
1569605793437.5,-20,-10,52,0,0,0,0,0
1569605793468.75,-20,-12,53,0,0,0,0,0
1569605793500,-25,-10,53,0,0,0,0,0
1569605793531.25,-28,-9,52,0,0,0,0,0
1569605793562.5,-35,-7,52,0,0,0,0,0
1569605793593.75,-23,-6,60,0,0,0,0,0
1569605793625,-8,-3,71,0,0,0,0,0
1569605793656.25,-9,-3,71,0,0,0,0,0
1569605793687.5,-10,-5,72,0,0,0,0,0
1569605793718.75,-4,-6,68,0,0,0,0,0
1569605793750,-10,-8,58,0,0,0,0,0
1569605793781.25,-3,-9,61,0,0,0,0,0
1569605793812.5,0,-7,60,0,0,0,0,0
1569605793843.75,-4,-6,59,0,0,0,0,0
1569605793875,-8,-5,66,0,0,0,0,0
1569605793906.25,-9,-7,64,0,0,0,0,0
1569605793937.5,-20,-6,62,0,0,0,0,0
1569605793968.75,-29,-6,57,0,0,0,0,0
1569605794000,-28,-7,56,0,0,0,0,0
1569605794031.25,-20,-5,59,0,0,0,0,0
1569605794062.5,-33,-7,47,0,0,0,0,0
1569605794093.75,-35,-8,59,0,0,0,0,0
1569605794125,-38,-7,55,0,0,0,0,0
1569605794156.25,-36,-5,54,0,0,0,0,0
1569605794187.5,-28,-3,58,0,0,0,0,0
1569605794218.75,-28,-2,58,0,0,0,0,0
1569605794250,-35,-4,52,0,0,0,0,0
1569605794281.25,-62,-4,21,0,0,0,0,0
1569605794312.5,-72,-3,23,0,0,0,0,0
1569605794343.75,-53,-8,38,0,0,0,0,0
1569605794375,-40,-8,45,0,0,0,0,0
1569605794406.25,-26,-6,56,0,0,0,0,0
1569605794437.5,-19,-5,58,0,0,0,0,0
1569605794468.75,-9,-2,66,0,0,0,0,0
1569605794500,-19,-3,59,0,0,0,0,0
1569605794531.25,-21,-3,59,0,0,0,0,0
1569605794562.5,-26,-3,59,0,0,0,0,0
1569605794593.75,-29,-4,57,0,0,0,0,0
1569605794625,-26,-1,60,0,0,0,0,0
1569605794656.25,-13,-1,65,0,0,0,0,0
1569605794687.5,-6,-1,66,0,0,0,0,0
1569605794718.75,-6,-3,68,0,0,0,0,0
1569605794750,-8,-3,64,0,0,0,0,0
1569605794781.25,-6,-5,62,0,0,0,0,0
1569605794812.5,-13,-4,60,0,0,0,0,0
1569605794843.75,-17,-4,60,0,0,0,0,0
1569605794875,-18,-2,60,0,0,0,0,0
1569605794906.25,-16,-1,61,0,0,0,0,0
1569605794937.5,-15,0,60,0,0,0,0,0
1569605794968.75,-19,-3,60,0,0,0,0,0
1569605795000,-25,-4,58,0,0,0,0,0
1569605795031.25,-22,-4,64,0,0,0,0,0
1569605795062.5,-27,-4,61,0,0,0,0,0
1569605795093.75,-36,-2,52,0,0,0,0,0
1569605795125,-38,1,50,0,0,0,0,0
1569605795156.25,-37,-4,59,0,0,0,0,0
1569605795187.5,-33,-5,54,0,0,0,0,0
1569605795218.75,-27,-7,53,0,0,0,0,0
1569605795250,-29,-7,56,0,0,0,0,0
1569605795281.25,-28,-5,60,0,0,0,0,0
1569605795312.5,-22,-1,55,0,0,0,0,0
1569605795343.75,-18,-2,54,0,0,0,0,0
1569605795375,-11,-8,60,0,0,0,0,0
1569605795406.25,-7,-6,63,0,0,0,0,0
1569605795437.5,-9,-2,69,0,0,0,0,0
1569605795468.75,-5,0,65,0,0,0,0,0
1569605795500,-3,1,58,0,0,0,0,0
1569605795531.25,-1,1,60,0,0,0,0,0
1569605795562.5,1,0,70,0,0,0,0,0
1569605795593.75,0,2,72,0,0,0,0,0
1569605795625,0,3,70,0,0,0,0,0
1569605795656.25,0,1,69,0,0,0,0,0
1569605795687.5,-17,-1,62,0,0,0,0,0
1569605795718.75,-47,1,43,0,0,0,0,0
1569605795750,-58,3,32,0,0,0,0,0
1569605795781.25,-66,4,7,0,0,0,0,0
1569605795812.5,-62,7,6,0,0,0,0,0
1569605795843.75,-57,6,22,0,0,0,0,0
1569605795875,-52,5,25,0,0,0,0,0
1569605795906.25,-46,-7,48,0,0,0,0,0
1569605795937.5,-62,-7,48,0,0,0,0,0
1569605795968.75,-41,-4,47,0,0,0,0,0
1569605796000,-40,1,50,0,0,0,0,0
1569605796031.25,-38,3,48,0,0,0,0,0
1569605796062.5,-42,5,38,0,0,0,0,0
1569605796093.75,-45,7,46,0,0,0,0,0
1569605796125,-52,3,46,0,0,0,0,0
1569605796156.25,-48,4,47,0,0,0,0,0
1569605796187.5,-41,0,56,0,0,0,0,0
1569605796218.75,-38,0,57,0,0,0,0,0
1569605796250,-46,1,45,0,0,0,0,0
1569605796281.25,-46,3,49,0,0,0,0,0
1569605796312.5,-38,0,51,0,0,0,0,0
1569605796343.75,-55,0,45,0,0,0,0,0
1569605796375,-43,1,51,0,0,0,0,0
1569605796406.25,-30,1,55,0,0,0,0,0
1569605796437.5,-25,-9,47,0,0,0,0,0
1569605796468.75,-20,-14,43,0,0,0,0,0
1569605796500,-35,-12,49,0,0,0,0,0
1569605796531.25,-28,-5,54,0,0,0,0,0
1569605796562.5,-29,-3,56,0,0,0,0,0
1569605796593.75,-38,3,59,0,0,0,0,0
1569605796625,-38,2,61,0,0,0,0,0
1569605796656.25,-28,-2,55,0,0,0,0,0
1569605796687.5,-27,0,54,0,0,0,0,0
1569605796718.75,-25,-6,59,0,0,0,0,0
1569605796750,-23,-3,61,0,0,0,0,0
1569605796781.25,-18,0,61,0,0,0,0,0
1569605796812.5,-23,-2,61,0,0,0,0,0
1569605796843.75,-33,-2,53,0,0,0,0,0
1569605796875,-33,-3,54,0,0,0,0,0
1569605796906.25,-29,-3,50,0,0,0,0,0
1569605796937.5,-32,-6,50,0,0,0,0,0
1569605796968.75,-27,-3,51,0,0,0,0,0
1569605797000,-29,-2,55,0,0,0,0,0
1569605797031.25,-25,-1,57,0,0,0,0,0
1569605797062.5,-32,1,57,0,0,0,0,0
1569605797093.75,-34,1,56,0,0,0,0,0
1569605797125,-47,3,53,0,0,0,0,0
1569605797156.25,-46,4,52,0,0,0,0,0
1569605797187.5,-39,5,53,0,0,0,0,0
1569605797218.75,-36,5,52,0,0,0,0,0
1569605797250,-34,5,52,0,0,0,0,0
1569605797281.25,-37,6,52,0,0,0,0,0
1569605797312.5,-38,6,58,0,0,0,0,0
1569605797343.75,-38,6,57,0,0,0,0,0
1569605797375,-32,6,48,0,0,0,0,0
1569605797406.25,-37,4,51,0,0,0,0,0
1569605797437.5,-38,6,51,0,0,0,0,0
1569605797468.75,-31,5,54,0,0,0,0,0
1569605797500,-33,5,54,0,0,0,0,0
1569605797531.25,-36,5,53,0,0,0,0,0
1569605797562.5,-36,6,54,0,0,0,0,0
1569605797593.75,-37,7,52,0,0,0,0,0
1569605797625,-39,8,52,0,0,0,0,0
1569605797656.25,-40,6,51,0,0,0,0,0
1569605797687.5,-38,6,49,0,0,0,0,0
1569605797718.75,-40,4,50,0,0,0,0,0
1569605797750,-38,3,50,0,0,0,0,0
1569605797781.25,-39,6,51,0,0,0,0,0
1569605797812.5,-37,5,52,0,0,0,0,0
1569605797843.75,-37,5,53,0,0,0,0,0
1569605797875,-35,5,53,0,0,0,0,0
1569605797906.25,-36,5,56,0,0,0,0,0
1569605797937.5,-33,5,56,0,0,0,0,0
1569605797968.75,-32,4,56,0,0,0,0,0
1569605798000,-33,5,53,0,0,0,0,0
1569605798031.25,-34,5,54,0,0,0,0,0
1569605798062.5,-30,3,51,0,0,0,0,0
1569605798093.75,-32,3,49,0,0,0,0,0
1569605798125,-35,3,57,0,0,0,0,0
1569605798156.25,-27,3,59,0,0,0,0,0
1569605798187.5,-31,4,59,0,0,0,0,0
1569605798218.75,-27,1,59,0,0,0,0,0
1569605798250,-29,1,56,0,0,0,0,0
1569605798281.25,-30,1,53,0,0,0,0,0
1569605798312.5,-29,0,54,0,0,0,0,0
1569605798343.75,-28,2,54,0,0,0,0,0
1569605798375,-28,2,55,0,0,0,0,0
1569605798406.25,-28,2,58,0,0,0,0,0
1569605798437.5,-27,2,59,0,0,0,0,0
1569605798468.75,-27,0,59,0,0,0,0,0
1569605798500,-26,0,59,0,0,0,0,0
1569605798531.25,-27,1,57,0,0,0,0,0
1569605798562.5,-28,1,58,0,0,0,0,0
1569605798593.75,-30,1,60,0,0,0,0,0
1569605798625,-27,1,55,0,0,0,0,0
1569605798656.25,-25,0,56,0,0,0,0,0
1569605798687.5,-25,0,58,0,0,0,0,0
1569605798718.75,-25,0,59,0,0,0,0,0
1569605798750,-26,2,59,0,0,0,0,0
1569605798781.25,-26,2,59,0,0,0,0,0
1569605798812.5,-26,3,62,0,0,0,0,0
1569605798843.75,-26,3,61,0,0,0,0,0
1569605798875,-26,3,59,0,0,0,0,0
1569605798906.25,-26,3,57,0,0,0,0,0
1569605798937.5,-24,0,59,0,0,0,0,0
1569605798968.75,-26,0,56,0,0,0,0,0
1569605799000,-25,1,57,0,0,0,0,0
1569605799031.25,-25,2,60,0,0,0,0,0
1569605799062.5,-25,2,60,0,0,0,0,0
1569605799093.75,-25,3,60,0,0,0,0,0
1569605799125,-25,3,60,0,0,0,0,0
1569605799156.25,-25,2,59,0,0,0,0,0
1569605799187.5,-24,2,59,0,0,0,0,0
1569605799218.75,-23,1,58,0,0,0,0,0
1569605799250,-24,1,59,0,0,0,0,0
1569605799281.25,-23,1,61,0,0,0,0,0
1569605799312.5,-24,2,61,0,0,0,0,0
1569605799343.75,-24,1,59,0,0,0,0,0
1569605799375,-22,1,59,0,0,0,0,0
1569605799406.25,-22,0,59,0,0,0,0,0
1569605799437.5,-23,-1,59,0,0,0,0,0
1569605799468.75,-23,0,59,0,0,0,0,0
1569605799500,-24,1,60,0,0,0,0,0
1569605799531.25,-24,1,60,0,0,0,0,0
1569605799562.5,-21,3,63,0,0,0,0,0
1569605799593.75,-20,4,59,0,0,0,0,0
1569605799625,-18,-1,64,0,0,0,0,0
1569605799656.25,-22,-4,63,0,0,0,0,0
1569605799687.5,-25,-1,56,0,0,0,0,0
1569605799718.75,-27,0,57,0,0,0,0,0
1569605799750,-25,2,57,0,0,0,0,0
1569605799781.25,-25,2,58,0,0,0,0,0
1569605799812.5,-22,2,59,0,0,0,0,0
1569605799843.75,-30,3,61,0,0,0,0,0
1569605799875,-29,4,62,0,0,0,0,0
1569605799906.25,-22,1,61,0,0,0,0,0
1569605799937.5,-21,-1,60,0,0,0,0,0
1569605799968.75,-23,1,52,0,0,0,0,0
1569605800000,-30,2,50,0,0,0,0,0
1569605800031.25,-35,4,56,0,0,0,0,0
1569605800062.5,-34,6,58,0,0,0,0,0
1569605800093.75,-30,6,59,0,0,0,0,0
1569605800125,-29,5,59,0,0,0,0,0
1569605800156.25,-28,2,56,0,0,0,0,0
1569605800187.5,-28,1,58,0,0,0,0,0
1569605800218.75,-25,0,57,0,0,0,0,0
1569605800250,-27,0,55,0,0,0,0,0
1569605800281.25,-25,0,56,0,0,0,0,0
1569605800312.5,-27,3,57,0,0,0,0,0
1569605800343.75,-28,4,58,0,0,0,0,0
1569605800375,-29,4,57,0,0,0,0,0
1569605800406.25,-32,3,57,0,0,0,0,0
1569605800437.5,-33,1,53,0,0,0,0,0
1569605800468.75,-36,2,48,0,0,0,0,0
1569605800500,-30,2,58,0,0,0,0,0
1569605800531.25,-26,3,60,0,0,0,0,0
1569605800562.5,-32,3,52,0,0,0,0,0
1569605800593.75,-40,4,53,0,0,0,0,0
1569605800625,-30,6,59,0,0,0,0,0
1569605800656.25,-32,6,54,0,0,0,0,0
1569605800687.5,-33,4,55,0,0,0,0,0
1569605800718.75,-29,4,57,0,0,0,0,0
1569605800750,-27,4,56,0,0,0,0,0
1569605800781.25,-34,3,54,0,0,0,0,0
1569605800812.5,-32,4,55,0,0,0,0,0
1569605800843.75,-31,4,56,0,0,0,0,0
1569605800875,-29,4,57,0,0,0,0,0
1569605800906.25,-32,4,55,0,0,0,0,0
1569605800937.5,-32,4,55,0,0,0,0,0
1569605800968.75,-36,3,53,0,0,0,0,0
1569605801000,-34,2,55,0,0,0,0,0
1569605801031.25,-34,3,54,0,0,0,0,0
1569605801062.5,-40,0,51,0,0,0,0,0
1569605801093.75,-39,-4,48,0,0,0,0,0
1569605801125,-40,-2,45,0,0,0,0,0
1569605801156.25,-45,0,45,0,0,0,0,0
1569605801187.5,-40,0,49,0,0,0,0,0
1569605801218.75,-38,2,53,0,0,0,0,0
1569605801250,-34,3,57,0,0,0,0,0
1569605801281.25,-35,2,56,0,0,0,0,0
1569605801312.5,-37,0,55,0,0,0,0,0
1569605801343.75,-35,0,55,0,0,0,0,0
1569605801375,-37,0,53,0,0,0,0,0
1569605801406.25,-37,0,53,0,0,0,0,0
1569605801437.5,-34,-1,49,0,0,0,0,0
1569605801468.75,-44,-2,46,0,0,0,0,0
1569605801500,-41,-2,48,0,0,0,0,0
1569605801531.25,-41,-2,45,0,0,0,0,0
1569605801562.5,-41,-1,45,0,0,0,0,0
1569605801593.75,-43,-2,45,0,0,0,0,0
1569605801625,-41,-1,47,0,0,0,0,0
1569605801656.25,-38,-1,48,0,0,0,0,0
1569605801687.5,-35,0,51,0,0,0,0,0
1569605801718.75,-29,-2,56,0,0,0,0,0
1569605801750,-26,1,60,0,0,0,0,0
1569605801781.25,-33,1,58,0,0,0,0,0
1569605801812.5,-34,1,57,0,0,0,0,0
1569605801843.75,-32,0,58,0,0,0,0,0
1569605801875,-31,-2,54,0,0,0,0,0
1569605801906.25,-32,-3,51,0,0,0,0,0
1569605801937.5,-30,-3,54,0,0,0,0,0
1569605801968.75,-27,-2,55,0,0,0,0,0
1569605802000,-28,0,57,0,0,0,0,0
1569605802031.25,-29,0,55,0,0,0,0,0
1569605802062.5,-30,-1,54,0,0,0,0,0
1569605802093.75,-26,0,57,0,0,0,0,0
1569605802125,-29,2,59,0,0,0,0,0
1569605802156.25,-28,3,59,0,0,0,0,0
1569605802187.5,-32,2,59,0,0,0,0,0
1569605802218.75,-32,3,61,0,0,0,0,0
1569605802250,-26,4,62,0,0,0,0,0
1569605802281.25,-24,1,59,0,0,0,0,0
1569605802312.5,-27,0,57,0,0,0,0,0
1569605802343.75,-28,-1,54,0,0,0,0,0
1569605802375,-31,-1,54,0,0,0,0,0
1569605802406.25,-32,0,54,0,0,0,0,0
1569605802437.5,-34,0,55,0,0,0,0,0
1569605802468.75,-25,-1,58,0,0,0,0,0
1569605802500,-26,-1,61,0,0,0,0,0
1569605802531.25,-29,-1,58,0,0,0,0,0
1569605802562.5,-28,-1,56,0,0,0,0,0
1569605802593.75,-29,0,57,0,0,0,0,0
1569605802625,-28,0,57,0,0,0,0,0
1569605802656.25,-28,1,57,0,0,0,0,0
1569605802687.5,-27,1,62,0,0,0,0,0
1569605802718.75,-28,1,62,0,0,0,0,0
1569605802750,-25,1,57,0,0,0,0,0
1569605802781.25,-21,0,57,0,0,0,0,0
1569605802812.5,-23,-3,59,0,0,0,0,0
1569605802843.75,-26,-4,57,0,0,0,0,0
1569605802875,-27,-2,55,0,0,0,0,0
1569605802906.25,-23,0,58,0,0,0,0,0
1569605802937.5,-23,-1,61,0,0,0,0,0
1569605802968.75,-23,-2,59,0,0,0,0,0
1569605803000,-23,-1,58,0,0,0,0,0
1569605803031.25,-22,-2,61,0,0,0,0,0
1569605803062.5,-29,-1,56,0,0,0,0,0
1569605803093.75,-22,0,62,0,0,0,0,0
1569605803125,-22,1,60,0,0,0,0,0
1569605803156.25,-25,0,59,0,0,0,0,0
1569605803187.5,-26,0,59,0,0,0,0,0
1569605803218.75,-29,0,57,0,0,0,0,0
1569605803250,-29,0,57,0,0,0,0,0
1569605803281.25,-28,-1,57,0,0,0,0,0
1569605803312.5,-28,-2,57,0,0,0,0,0
1569605803343.75,-23,-1,58,0,0,0,0,0
1569605803375,-25,-1,56,0,0,0,0,0
1569605803406.25,-30,2,58,0,0,0,0,0
1569605803437.5,-28,2,58,0,0,0,0,0
1569605803468.75,-28,5,61,0,0,0,0,0
1569605803500,-27,10,65,0,0,0,0,0
1569605803531.25,-26,5,64,0,0,0,0,0
1569605803562.5,-18,-11,47,0,0,0,0,0
1569605803593.75,-13,-17,45,0,0,0,0,0
1569605803625,-10,-1,45,0,0,0,0,0
1569605803656.25,-20,1,46,0,0,0,0,0
1569605803687.5,-38,7,52,0,0,0,0,0
1569605803718.75,-37,11,57,0,0,0,0,0
1569605803750,-34,14,56,0,0,0,0,0
1569605803781.25,-35,14,54,0,0,0,0,0
1569605803812.5,-31,15,53,0,0,0,0,0
1569605803843.75,-40,17,60,0,0,0,0,0
1569605803875,-44,22,68,0,0,0,0,0
1569605803906.25,-27,25,62,0,0,0,0,0
1569605803937.5,-25,25,58,0,0,0,0,0
1569605803968.75,-25,24,55,0,0,0,0,0
1569605804000,-21,23,55,0,0,0,0,0
1569605804031.25,-22,18,58,0,0,0,0,0
1569605804062.5,-30,17,57,0,0,0,0,0
1569605804093.75,-36,15,54,0,0,0,0,0
1569605804125,-32,14,54,0,0,0,0,0
1569605804156.25,-31,17,58,0,0,0,0,0
1569605804187.5,-28,16,58,0,0,0,0,0
1569605804218.75,-22,20,61,0,0,0,0,0
1569605804250,-40,16,65,0,0,0,0,0
1569605804281.25,-38,5,40,0,0,0,0,0
1569605804312.5,-46,9,33,0,0,0,0,0
1569605804343.75,-47,9,42,0,0,0,0,0
1569605804375,-41,21,58,0,0,0,0,0
1569605804406.25,-22,17,59,0,0,0,0,0
1569605804437.5,-7,5,58,0,0,0,0,0
1569605804468.75,-10,5,57,0,0,0,0,0
1569605804500,-26,14,61,0,0,0,0,0
1569605804531.25,-35,13,56,0,0,0,0,0
1569605804562.5,-44,9,48,0,0,0,0,0
1569605804593.75,-48,11,49,0,0,0,0,0
1569605804625,-37,8,47,0,0,0,0,0
1569605804656.25,-38,10,47,0,0,0,0,0
1569605804687.5,-41,12,51,0,0,0,0,0
1569605804718.75,-41,12,52,0,0,0,0,0
1569605804750,-39,11,54,0,0,0,0,0
1569605804781.25,-33,10,58,0,0,0,0,0
1569605804812.5,-32,8,59,0,0,0,0,0
1569605804843.75,-27,1,57,0,0,0,0,0
1569605804875,-21,4,57,0,0,0,0,0
1569605804906.25,-17,9,53,0,0,0,0,0
1569605804937.5,-14,9,58,0,0,0,0,0
1569605804968.75,-18,8,62,0,0,0,0,0
1569605805000,-22,8,66,0,0,0,0,0
1569605805031.25,-22,7,66,0,0,0,0,0
1569605805062.5,-22,6,63,0,0,0,0,0
1569605805093.75,-21,4,56,0,0,0,0,0
1569605805125,-20,1,56,0,0,0,0,0
1569605805156.25,-21,-1,55,0,0,0,0,0
1569605805187.5,-20,1,56,0,0,0,0,0
1569605805218.75,-19,2,58,0,0,0,0,0
1569605805250,-19,5,60,0,0,0,0,0
1569605805281.25,-20,6,61,0,0,0,0,0
1569605805312.5,-16,8,64,0,0,0,0,0
1569605805343.75,-16,8,64,0,0,0,0,0
1569605805375,-17,8,64,0,0,0,0,0
1569605805406.25,-17,8,63,0,0,0,0,0
1569605805437.5,-18,7,62,0,0,0,0,0
1569605805468.75,-18,7,62,0,0,0,0,0
1569605805500,-18,5,60,0,0,0,0,0
1569605805531.25,-19,5,59,0,0,0,0,0
1569605805562.5,-20,5,59,0,0,0,0,0
1569605805593.75,-22,6,60,0,0,0,0,0
1569605805625,-23,6,60,0,0,0,0,0
1569605805656.25,-25,7,59,0,0,0,0,0
1569605805687.5,-25,6,60,0,0,0,0,0
1569605805718.75,-22,5,60,0,0,0,0,0
1569605805750,-20,3,59,0,0,0,0,0
1569605805781.25,-16,5,59,0,0,0,0,0
1569605805812.5,-14,5,61,0,0,0,0,0
1569605805843.75,-14,7,64,0,0,0,0,0
1569605805875,-20,8,62,0,0,0,0,0
1569605805906.25,-29,9,61,0,0,0,0,0
1569605805937.5,-27,7,59,0,0,0,0,0
1569605805968.75,-25,6,57,0,0,0,0,0
1569605806000,-23,6,59,0,0,0,0,0
1569605806031.25,-23,5,58,0,0,0,0,0
1569605806062.5,-21,7,61,0,0,0,0,0
1569605806093.75,-20,8,64,0,0,0,0,0
1569605806125,-20,7,66,0,0,0,0,0
1569605806156.25,-22,7,68,0,0,0,0,0
1569605806187.5,-28,9,73,0,0,0,0,0
1569605806218.75,-34,9,74,0,0,0,0,0
1569605806250,-21,11,43,0,0,0,0,0
1569605806281.25,-13,10,40,0,0,0,0,0
1569605806312.5,-22,-7,56,0,0,0,0,0
1569605806343.75,-23,-5,62,0,0,0,0,0
1569605806375,-19,-2,60,0,0,0,0,0
1569605806406.25,-19,1,61,0,0,0,0,0
1569605806437.5,-19,-4,60,0,0,0,0,0
1569605806468.75,-20,1,54,0,0,0,0,0
1569605806500,-22,0,51,0,0,0,0,0
1569605806531.25,-23,3,50,0,0,0,0,0
1569605806562.5,-27,4,53,0,0,0,0,0
1569605806593.75,-31,3,61,0,0,0,0,0
1569605806625,-28,4,63,0,0,0,0,0
1569605806656.25,-20,5,63,0,0,0,0,0
1569605806687.5,-19,6,62,0,0,0,0,0
1569605806718.75,-24,8,60,0,0,0,0,0
1569605806750,-29,14,63,0,0,0,0,0
1569605806781.25,-23,13,64,0,0,0,0,0
1569605806812.5,-23,7,61,0,0,0,0,0
1569605806843.75,-20,4,59,0,0,0,0,0
1569605806875,-22,4,55,0,0,0,0,0
1569605806906.25,-23,4,57,0,0,0,0,0
1569605806937.5,-23,5,58,0,0,0,0,0
1569605806968.75,-23,5,57,0,0,0,0,0
1569605807000,-28,7,58,0,0,0,0,0
1569605807031.25,-31,11,59,0,0,0,0,0
1569605807062.5,-26,15,59,0,0,0,0,0
1569605807093.75,-20,14,60,0,0,0,0,0
1569605807125,-10,11,66,0,0,0,0,0
1569605807156.25,-14,7,62,0,0,0,0,0
1569605807187.5,-17,8,60,0,0,0,0,0
1569605807218.75,-23,12,60,0,0,0,0,0
1569605807250,-29,14,58,0,0,0,0,0
1569605807281.25,-33,9,56,0,0,0,0,0
1569605807312.5,-24,6,56,0,0,0,0,0
1569605807343.75,-13,7,60,0,0,0,0,0
1569605807375,-11,8,62,0,0,0,0,0
1569605807406.25,-21,10,60,0,0,0,0,0
1569605807437.5,-26,10,59,0,0,0,0,0
1569605807468.75,-27,12,59,0,0,0,0,0
1569605807500,-25,13,60,0,0,0,0,0
1569605807531.25,-26,11,60,0,0,0,0,0
1569605807562.5,-25,11,59,0,0,0,0,0
1569605807593.75,-25,10,60,0,0,0,0,0
1569605807625,-22,8,58,0,0,0,0,0
1569605807656.25,-18,6,58,0,0,0,0,0
1569605807687.5,-11,7,58,0,0,0,0,0
1569605807718.75,-30,14,67,0,0,0,0,0
1569605807750,-45,17,79,0,0,0,0,0
1569605807781.25,-11,16,76,0,0,0,0,0
1569605807812.5,7,9,60,0,0,0,0,0
1569605807843.75,-9,2,48,0,0,0,0,0
1569605807875,-17,-11,31,0,0,0,0,0
1569605807906.25,-23,-14,28,0,0,0,0,0
1569605807937.5,-39,-11,32,0,0,0,0,0
1569605807968.75,-43,4,57,0,0,0,0,0
1569605808000,-32,14,72,0,0,0,0,0
1569605808031.25,-12,20,79,0,0,0,0,0
1569605808062.5,-12,19,77,0,0,0,0,0
1569605808093.75,-25,15,68,0,0,0,0,0
1569605808125,-29,12,61,0,0,0,0,0
1569605808156.25,-28,11,59,0,0,0,0,0
1569605808187.5,-27,11,59,0,0,0,0,0
1569605808218.75,-23,9,57,0,0,0,0,0
1569605808250,-22,7,56,0,0,0,0,0
1569605808281.25,-26,5,55,0,0,0,0,0
1569605808312.5,-26,4,56,0,0,0,0,0
1569605808343.75,-22,7,66,0,0,0,0,0
1569605808375,-21,9,69,0,0,0,0,0
1569605808406.25,-10,8,67,0,0,0,0,0
1569605808437.5,-7,3,61,0,0,0,0,0
1569605808468.75,-8,-2,56,0,0,0,0,0
1569605808500,-13,-7,47,0,0,0,0,0
1569605808531.25,-16,-8,42,0,0,0,0,0
1569605808562.5,-15,-2,48,0,0,0,0,0
1569605808593.75,-15,2,56,0,0,0,0,0
1569605808625,-32,14,67,0,0,0,0,0
1569605808656.25,-40,16,71,0,0,0,0,0
1569605808687.5,-13,18,74,0,0,0,0,0
1569605808718.75,-6,19,70,0,0,0,0,0
1569605808750,-17,18,60,0,0,0,0,0
1569605808781.25,-26,16,57,0,0,0,0,0
1569605808812.5,-30,10,61,0,0,0,0,0
1569605808843.75,-29,8,59,0,0,0,0,0
1569605808875,-28,8,58,0,0,0,0,0
1569605808906.25,-24,9,55,0,0,0,0,0
1569605808937.5,-26,7,54,0,0,0,0,0
1569605808968.75,-22,6,57,0,0,0,0,0
1569605809000,-19,7,60,0,0,0,0,0
1569605809031.25,-16,8,66,0,0,0,0,0
1569605809062.5,-16,7,65,0,0,0,0,0
1569605809093.75,-22,9,58,0,0,0,0,0
1569605809125,-30,8,54,0,0,0,0,0
1569605809156.25,-36,3,44,0,0,0,0,0
1569605809187.5,-35,4,44,0,0,0,0,0
1569605809218.75,-36,5,53,0,0,0,0,0
1569605809250,-29,7,58,0,0,0,0,0
1569605809281.25,-27,8,58,0,0,0,0,0
1569605809312.5,-29,11,62,0,0,0,0,0
1569605809343.75,-29,10,62,0,0,0,0,0
1569605809375,-32,10,55,0,0,0,0,0
1569605809406.25,-36,9,54,0,0,0,0,0
1569605809437.5,-36,8,55,0,0,0,0,0
1569605809468.75,-33,8,56,0,0,0,0,0
1569605809500,-31,10,58,0,0,0,0,0
1569605809531.25,-31,10,60,0,0,0,0,0
1569605809562.5,-27,6,64,0,0,0,0,0
1569605809593.75,-21,4,62,0,0,0,0,0
1569605809625,-18,2,60,0,0,0,0,0
1569605809656.25,-14,-3,52,0,0,0,0,0
1569605809687.5,-17,-3,51,0,0,0,0,0
1569605809718.75,-27,-4,49,0,0,0,0,0
1569605809750,-29,-2,49,0,0,0,0,0
1569605809781.25,-26,-1,55,0,0,0,0,0
1569605809812.5,-25,2,58,0,0,0,0,0
1569605809843.75,-27,6,62,0,0,0,0,0
1569605809875,-28,7,63,0,0,0,0,0
1569605809906.25,-31,9,61,0,0,0,0,0
1569605809937.5,-32,9,61,0,0,0,0,0
1569605809968.75,-29,8,62,0,0,0,0,0
1569605810000,-25,6,60,0,0,0,0,0
1569605810031.25,-26,5,59,0,0,0,0,0
1569605810062.5,-25,3,56,0,0,0,0,0
1569605810093.75,-24,2,55,0,0,0,0,0
1569605810125,-23,2,55,0,0,0,0,0
1569605810156.25,-23,2,57,0,0,0,0,0
1569605810187.5,-24,3,57,0,0,0,0,0
1569605810218.75,-25,3,57,0,0,0,0,0
1569605810250,-28,5,57,0,0,0,0,0
1569605810281.25,-28,5,56,0,0,0,0,0
1569605810312.5,-25,1,54,0,0,0,0,0
1569605810343.75,-25,0,60,0,0,0,0,0
1569605810375,-30,7,62,0,0,0,0,0
1569605810406.25,-26,9,63,0,0,0,0,0
1569605810437.5,-26,7,53,0,0,0,0,0
1569605810468.75,-35,0,54,0,0,0,0,0
1569605810500,-28,0,61,0,0,0,0,0
1569605810531.25,-19,7,62,0,0,0,0,0
1569605810562.5,-24,5,66,0,0,0,0,0
1569605810593.75,-24,6,61,0,0,0,0,0
1569605810625,-31,11,63,0,0,0,0,0
1569605810656.25,-31,-1,64,0,0,0,0,0
1569605810687.5,-20,-1,55,0,0,0,0,0
1569605810718.75,-27,-3,44,0,0,0,0,0
1569605810750,-35,-5,45,0,0,0,0,0
1569605810781.25,-21,3,57,0,0,0,0,0
1569605810812.5,-22,6,61,0,0,0,0,0
1569605810843.75,-34,5,59,0,0,0,0,0
1569605810875,-36,6,56,0,0,0,0,0
1569605810906.25,-39,7,56,0,0,0,0,0
1569605810937.5,-38,7,53,0,0,0,0,0
1569605810968.75,-43,7,52,0,0,0,0,0
1569605811000,-47,5,40,0,0,0,0,0
1569605811031.25,-46,5,37,0,0,0,0,0
1569605811062.5,-44,5,48,0,0,0,0,0
1569605811093.75,-39,4,51,0,0,0,0,0
1569605811125,-36,4,54,0,0,0,0,0
1569605811156.25,-40,4,53,0,0,0,0,0
1569605811187.5,-46,6,51,0,0,0,0,0
1569605811218.75,-47,7,44,0,0,0,0,0
1569605811250,-41,6,48,0,0,0,0,0
1569605811281.25,-43,4,49,0,0,0,0,0
1569605811312.5,-44,2,48,0,0,0,0,0
1569605811343.75,-46,0,45,0,0,0,0,0
1569605811375,-42,0,46,0,0,0,0,0
1569605811406.25,-35,0,49,0,0,0,0,0
1569605811437.5,-32,0,51,0,0,0,0,0
1569605811468.75,-41,-1,51,0,0,0,0,0
1569605811500,-41,-2,48,0,0,0,0,0
1569605811531.25,-43,0,45,0,0,0,0,0
1569605811562.5,-45,0,46,0,0,0,0,0
1569605811593.75,-29,5,54,0,0,0,0,0
1569605811625,-32,4,56,0,0,0,0,0
1569605811656.25,-40,2,55,0,0,0,0,0
1569605811687.5,-44,0,49,0,0,0,0,0
1569605811718.75,-40,-1,47,0,0,0,0,0
1569605811750,-34,-5,44,0,0,0,0,0
1569605811781.25,-31,-12,39,0,0,0,0,0
1569605811812.5,-33,-6,45,0,0,0,0,0
1569605811843.75,-46,0,45,0,0,0,0,0
1569605811875,-66,10,28,0,0,0,0,0
1569605811906.25,-64,12,35,0,0,0,0,0
1569605811937.5,-71,14,41,0,0,0,0,0
1569605811968.75,-64,12,38,0,0,0,0,0
1569605812000,-46,10,39,0,0,0,0,0
1569605812031.25,-40,8,38,0,0,0,0,0
1569605812062.5,-36,5,32,0,0,0,0,0
1569605812093.75,-63,0,15,0,0,0,0,0
1569605812125,-71,-1,9,0,0,0,0,0
1569605812156.25,-55,3,26,0,0,0,0,0
1569605812187.5,-54,4,28,0,0,0,0,0
1569605812218.75,-60,4,33,0,0,0,0,0
1569605812250,-75,10,38,0,0,0,0,0
1569605812281.25,-55,3,35,0,0,0,0,0
1569605812312.5,-55,1,31,0,0,0,0,0
1569605812343.75,-52,-2,32,0,0,0,0,0
1569605812375,-57,-3,33,0,0,0,0,0
1569605812406.25,-59,-5,32,0,0,0,0,0
1569605812437.5,-58,-2,32,0,0,0,0,0
1569605812468.75,-54,0,31,0,0,0,0,0
1569605812500,-54,-1,28,0,0,0,0,0
1569605812531.25,-53,-1,30,0,0,0,0,0
1569605812562.5,-54,-4,30,0,0,0,0,0
1569605812593.75,-53,-4,31,0,0,0,0,0
1569605812625,-55,-3,29,0,0,0,0,0
1569605812656.25,-57,-2,26,0,0,0,1,1
1569605812687.5,-50,0,36,0,0,0,1,1
1569605812718.75,-57,-1,35,0,0,0,1,1
1569605812750,-57,-3,35,0,0,0,1,1
1569605812781.25,-52,-2,36,0,0,0,1,1
1569605812812.5,-51,-1,39,0,0,0,1,1
1569605812843.75,-48,-3,40,0,0,0,1,1
1569605812875,-47,-5,41,0,0,0,1,1
1569605812906.25,-46,-5,39,0,0,0,1,1
1569605812937.5,-50,-5,39,0,0,0,1,1
1569605812968.75,-50,-3,37,0,0,0,1,1
1569605813000,-50,-2,36,0,0,0,1,1
1569605813031.25,-57,-4,36,0,0,0,1,1
1569605813062.5,-51,-3,40,0,0,0,1,1
1569605813093.75,-43,-5,49,0,0,0,1,1
1569605813125,-39,-5,53,0,0,0,1,1
1569605813156.25,-19,-4,45,0,0,0,1,1
1569605813187.5,-30,-4,52,0,0,0,1,1
1569605813218.75,-34,-4,56,0,0,0,1,1
1569605813250,-35,-3,53,0,0,0,1,1
1569605813281.25,-37,-3,52,0,0,0,1,1
1569605813312.5,-46,-7,43,0,0,0,1,1
1569605813343.75,-26,-3,54,0,0,0,1,1
1569605813375,-32,-5,58,0,0,0,1,1
1569605813406.25,-31,-2,59,0,0,0,1,1
1569605813437.5,-31,-1,57,0,0,0,1,1
1569605813468.75,-32,-3,56,0,0,0,1,1
1569605813500,-33,-4,55,0,0,0,1,1
1569605813531.25,-32,-3,55,0,0,0,1,1
1569605813562.5,-36,-3,55,0,0,0,1,1
1569605813593.75,-39,-3,52,0,0,0,1,1
1569605813625,-40,-3,47,0,0,0,1,1
1569605813656.25,-37,-3,53,0,0,0,1,1
1569605813687.5,-33,-3,55,0,0,0,1,1
1569605813718.75,-27,-2,57,0,0,0,1,1
1569605813750,-25,-7,58,0,0,0,1,1
1569605813781.25,-21,-6,59,0,0,0,1,1
1569605813812.5,-24,-7,59,0,0,0,1,1
1569605813843.75,-41,-5,48,0,0,0,1,1
1569605813875,-36,-2,53,0,0,0,1,1
1569605813906.25,-31,-5,58,0,0,0,1,1
1569605813937.5,-27,-6,57,0,0,0,1,1
1569605813968.75,-26,-6,56,0,0,0,1,1
1569605814000,-31,-5,56,0,0,0,1,1
1569605814031.25,-33,-4,57,0,0,0,1,1
1569605814062.5,-34,-2,51,0,0,0,1,1
1569605814093.75,-29,-5,59,0,0,0,1,1
1569605814125,-28,-4,61,0,0,0,1,1
1569605814156.25,-26,-4,59,0,0,0,0,0
1569605814187.5,-29,-6,55,0,0,0,0,0
1569605814218.75,-28,-5,57,0,0,0,0,0
1569605814250,-25,-3,60,0,0,0,0,0
1569605814281.25,-26,-4,59,0,0,0,0,0
1569605814312.5,-26,-5,61,0,0,0,0,0
1569605814343.75,-28,-4,60,0,0,0,0,0
1569605814375,-26,-5,60,0,0,0,0,0
1569605814406.25,-24,-6,57,0,0,0,0,0
1569605814437.5,-27,-6,53,0,0,0,0,0
1569605814468.75,-31,-8,52,0,0,0,0,0
1569605814500,-29,-8,55,0,0,0,0,0
1569605814531.25,-29,-6,56,0,0,0,0,0
1569605814562.5,-27,-5,59,0,0,0,0,0
1569605814593.75,-24,-6,63,0,0,0,0,0
1569605814625,-24,-6,63,0,0,0,0,0
1569605814656.25,-27,-7,60,0,0,0,0,0
1569605814687.5,-27,-4,60,0,0,0,0,0
1569605814718.75,-16,-7,59,0,0,0,0,0
1569605814750,-12,-10,60,0,0,0,0,0
1569605814781.25,-13,-12,57,0,0,0,0,0
1569605814812.5,-16,-11,57,0,0,0,0,0
1569605814843.75,-18,-6,61,0,0,0,0,0
1569605814875,-19,-5,63,0,0,0,0,0
1569605814906.25,-22,-8,64,0,0,0,0,0
1569605814937.5,-17,-9,58,0,0,0,0,0
1569605814968.75,-12,-10,55,0,0,0,0,0
1569605815000,-6,-12,59,0,0,0,0,0
1569605815031.25,-7,-11,61,0,0,0,0,0
1569605815062.5,-14,-8,59,0,0,0,0,0
1569605815093.75,-18,-6,60,0,0,0,0,0
1569605815125,-25,-3,65,0,0,0,0,0
1569605815156.25,-27,-3,65,0,0,0,0,0
1569605815187.5,-29,-5,61,0,0,0,0,0
1569605815218.75,-24,-6,59,0,0,0,0,0
1569605815250,-20,-7,56,0,0,0,0,0
1569605815281.25,-21,-6,56,0,0,0,0,0
1569605815312.5,-23,-5,57,0,0,0,0,0
1569605815343.75,-23,-6,60,0,0,0,0,0
1569605815375,-22,-6,59,0,0,0,0,0
1569605815406.25,-21,-4,63,0,0,0,0,0
1569605815437.5,-24,-2,64,0,0,0,0,0
1569605815468.75,-21,-1,55,0,0,0,0,0
1569605815500,-31,0,56,0,0,0,0,0
1569605815531.25,-24,-2,64,0,0,0,0,0
1569605815562.5,-25,0,61,0,0,0,0,0
1569605815593.75,-22,-1,59,0,0,0,0,0
1569605815625,-20,-2,59,0,0,0,0,0
1569605815656.25,-20,-1,60,0,0,0,0,0
1569605815687.5,-21,-1,60,0,0,0,0,0
1569605815718.75,-27,0,61,0,0,0,0,0
1569605815750,-30,1,61,0,0,0,0,0
1569605815781.25,-31,1,60,0,0,0,0,0
1569605815812.5,-24,-2,60,0,0,0,0,0
1569605815843.75,-22,-3,59,0,0,0,0,0
1569605815875,-22,-3,57,0,0,0,0,0
1569605815906.25,-22,-4,55,0,0,0,0,0
1569605815937.5,-23,-5,55,0,0,0,0,0
1569605815968.75,-24,-4,55,0,0,0,0,0
1569605816000,-25,-2,58,0,0,0,0,0
1569605816031.25,-25,-1,59,0,0,0,0,0
1569605816062.5,-27,0,64,0,0,0,0,0
1569605816093.75,-27,0,65,0,0,0,0,0
1569605816125,-23,1,59,0,0,0,0,0
1569605816156.25,-22,-2,60,0,0,0,0,0
1569605816187.5,-23,-1,59,0,0,0,0,0
1569605816218.75,-28,-3,56,0,0,0,0,0
1569605816250,-29,-3,55,0,0,0,0,0
1569605816281.25,-27,-3,54,0,0,0,0,0
1569605816312.5,-27,-2,57,0,0,0,0,0
1569605816343.75,-26,-3,59,0,0,0,0,0
1569605816375,-25,-3,58,0,0,0,0,0
1569605816406.25,-20,-2,60,0,0,0,0,0
1569605816437.5,-22,-3,56,0,0,0,0,0
1569605816468.75,-27,1,58,0,0,0,0,0
1569605816500,-27,4,63,0,0,0,0,0
1569605816531.25,-28,7,67,0,0,0,0,0
1569605816562.5,-23,8,68,0,0,0,0,0
1569605816593.75,-22,4,62,0,0,0,0,0
1569605816625,-28,-1,57,0,0,0,0,0
1569605816656.25,-28,-3,56,0,0,0,0,0
1569605816687.5,-28,-1,55,0,0,0,0,0
1569605816718.75,-28,-2,56,0,0,0,0,0
1569605816750,-26,-2,56,0,0,0,0,0
1569605816781.25,-31,-1,57,0,0,0,0,0
1569605816812.5,-20,-2,63,0,0,0,0,0
1569605816843.75,-17,-3,63,0,0,0,0,0
1569605816875,-25,-5,53,0,0,0,0,0
1569605816906.25,-30,-6,51,0,0,0,0,0
1569605816937.5,-29,-4,55,0,0,0,0,0
1569605816968.75,-26,-4,57,0,0,0,0,0
1569605817000,-27,-4,56,0,0,0,0,0
1569605817031.25,-32,-5,50,0,0,0,0,0
1569605817062.5,-32,-5,50,0,0,0,0,0
1569605817093.75,-32,-1,58,0,0,0,0,0
1569605817125,-32,0,59,0,0,0,0,0
1569605817156.25,-31,1,65,0,0,0,0,0
1569605817187.5,-27,2,66,0,0,0,0,0
1569605817218.75,-19,-2,60,0,0,0,0,0
1569605817250,-18,-3,57,0,0,0,0,0
1569605817281.25,-16,-4,58,0,0,0,0,0
1569605817312.5,-20,-4,59,0,0,0,0,0
1569605817343.75,-23,-2,63,0,0,0,0,0
1569605817375,-22,-2,62,0,0,0,0,0
1569605817406.25,-22,-1,60,0,0,0,0,0
1569605817437.5,-25,-3,62,0,0,0,0,0
1569605817468.75,-25,-3,63,0,0,0,0,0
1569605817500,-20,-4,61,0,0,0,0,0
1569605817531.25,-17,-4,62,0,0,0,0,0
1569605817562.5,-15,-4,59,0,0,0,0,0
1569605817593.75,-15,-6,58,0,0,0,0,0
1569605817625,-17,-6,57,0,0,0,0,0
1569605817656.25,-19,-6,59,0,0,0,0,0
1569605817687.5,-21,-4,60,0,0,0,0,0
1569605817718.75,-20,-4,61,0,0,0,0,0
1569605817750,-20,-4,64,0,0,0,0,0
1569605817781.25,-19,-3,63,0,0,0,0,0
1569605817812.5,-19,-4,59,0,0,0,0,0
1569605817843.75,-16,-6,60,0,0,0,0,0
1569605817875,-16,-5,61,0,0,0,0,0
1569605817906.25,-19,-5,62,0,0,0,0,0
1569605817937.5,-20,-4,62,0,0,0,0,0
1569605817968.75,-20,-4,59,0,0,0,0,0
1569605818000,-20,-4,60,0,0,0,0,0
1569605818031.25,-20,-4,62,0,0,0,0,0
1569605818062.5,-21,-4,62,0,0,0,0,0
1569605818093.75,-21,-5,59,0,0,0,0,0
1569605818125,-21,-5,60,0,0,0,0,0
1569605818156.25,-16,-5,61,0,0,0,0,0
1569605818187.5,-17,-5,60,0,0,0,0,0
1569605818218.75,-20,-4,60,0,0,0,0,0
1569605818250,-21,-3,62,0,0,0,0,0
1569605818281.25,-21,-4,62,0,0,0,0,0
1569605818312.5,-20,-4,60,0,0,0,0,0
1569605818343.75,-20,-5,60,0,0,0,0,0
1569605818375,-19,-5,60,0,0,0,0,0
1569605818406.25,-19,-5,60,0,0,0,0,0
1569605818437.5,-20,-4,61,0,0,0,0,0
1569605818468.75,-19,-5,61,0,0,0,0,0
1569605818500,-20,-5,60,0,0,0,0,0
1569605818531.25,-21,-4,60,0,0,0,0,0
1569605818562.5,-20,-5,60,0,0,0,0,0
1569605818593.75,-20,-5,60,0,0,0,0,0
1569605818625,-19,-4,60,0,0,0,0,0
1569605818656.25,-18,-4,62,0,0,0,0,0
1569605818687.5,-21,-4,61,0,0,0,0,0
1569605818718.75,-22,-4,60,0,0,0,0,0
1569605818750,-22,-5,59,0,0,0,0,0
1569605818781.25,-21,-5,60,0,0,0,0,0
1569605818812.5,-21,-3,61,0,0,0,0,0
1569605818843.75,-21,-4,61,0,0,0,0,0
1569605818875,-22,-4,60,0,0,0,0,0
1569605818906.25,-22,-4,60,0,0,0,0,0
1569605818937.5,-22,-4,59,0,0,0,0,0
1569605818968.75,-22,-4,59,0,0,0,0,0
1569605819000,-22,-4,59,0,0,0,0,0
1569605819031.25,-23,-4,60,0,0,0,0,0
1569605819062.5,-22,-4,61,0,0,0,0,0
1569605819093.75,-21,-3,59,0,0,0,0,0
1569605819125,-24,-4,59,0,0,0,0,0
1569605819156.25,-24,-4,59,0,0,0,0,0
1569605819187.5,-24,-3,60,0,0,0,0,0
1569605819218.75,-23,-3,60,0,0,0,0,0
1569605819250,-23,-3,60,0,0,0,0,0
1569605819281.25,-24,-3,60,0,0,0,0,0
1569605819312.5,-24,-3,59,0,0,0,0,0
1569605819343.75,-22,-3,60,0,0,0,0,0
1569605819375,-22,-3,60,0,0,0,0,0
1569605819406.25,-23,-3,60,0,0,0,0,0
1569605819437.5,-24,-4,58,0,0,0,0,0
1569605819468.75,-28,-4,56,0,0,0,0,0
1569605819500,-27,-4,58,0,0,0,0,0
1569605819531.25,-24,-4,59,0,0,0,0,0
1569605819562.5,-24,-4,59,0,0,0,0,0
1569605819593.75,-24,-4,59,0,0,0,0,0
1569605819625,-25,-4,58,0,0,0,0,0
1569605819656.25,-25,-4,58,0,0,0,0,0
1569605819687.5,-23,-4,60,0,0,0,0,0
1569605819718.75,-26,-4,59,0,0,0,0,0
1569605819750,-29,-4,56,0,0,0,0,0
1569605819781.25,-29,-4,55,0,0,0,0,0
1569605819812.5,-27,-4,56,0,0,0,0,0
1569605819843.75,-25,-3,59,0,0,0,0,0
1569605819875,-27,-3,58,0,0,0,0,0
1569605819906.25,-29,-3,58,0,0,0,0,0
1569605819937.5,-29,-4,56,0,0,0,0,0
1569605819968.75,-28,-3,55,0,0,0,0,0
1569605820000,-28,-3,57,0,0,0,0,0
1569605820031.25,-28,-3,57,0,0,0,0,0
1569605820062.5,-30,-3,58,0,0,0,0,0
1569605820093.75,-30,-2,58,0,0,0,0,0
1569605820125,-29,-3,59,0,0,0,0,0
1569605820156.25,-27,-3,58,0,0,0,0,0
1569605820187.5,-27,-4,57,0,0,0,0,0
1569605820218.75,-27,-4,56,0,0,0,0,0
1569605820250,-21,-3,58,0,0,0,0,0
1569605820281.25,-12,-3,76,0,0,0,0,0
1569605820312.5,-25,-6,60,0,0,0,0,0
1569605820343.75,-30,-2,49,0,0,0,0,0
1569605820375,-32,-3,54,0,0,0,0,0
1569605820406.25,-40,-5,51,0,0,0,0,0
1569605820437.5,-44,-5,46,0,0,0,0,0
1569605820468.75,-53,-5,35,0,0,0,0,0
1569605820500,-51,-6,35,0,0,0,0,0
1569605820531.25,-51,-6,39,0,0,0,0,0
1569605820562.5,-52,-6,39,0,0,0,0,0
1569605820593.75,-49,-5,43,0,0,0,0,0
1569605820625,-50,-5,43,0,0,0,0,0
1569605820656.25,-52,-5,43,0,0,0,0,0
1569605820687.5,-57,-5,46,0,0,0,0,0
1569605820718.75,-79,-3,47,0,0,0,0,0
1569605820750,-52,-4,40,0,0,0,0,0
1569605820781.25,-31,-6,42,0,0,0,0,0
1569605820812.5,-17,-17,49,0,0,0,0,0
1569605820843.75,-20,-20,52,0,0,0,0,0
1569605820875,-35,-20,45,0,0,0,0,0
1569605820906.25,-32,-18,48,0,0,0,0,0
1569605820937.5,-23,-17,52,0,0,0,0,0
1569605820968.75,-14,-16,54,0,0,0,0,0
1569605821000,-20,-14,60,0,0,0,0,0
1569605821031.25,-25,-15,63,0,0,0,0,0
1569605821062.5,-44,-18,49,0,0,0,0,0
1569605821093.75,-35,-16,47,0,0,0,0,0
1569605821125,-31,-17,44,0,0,0,0,0
1569605821156.25,-30,-19,68,0,0,0,0,0
1569605821187.5,-38,-16,73,0,0,0,0,0
1569605821218.75,-20,-18,84,0,0,0,0,0
1569605821250,-21,-23,91,0,0,0,0,0
1569605821281.25,-28,-25,73,0,0,0,0,0
1569605821312.5,-40,-32,58,0,0,0,0,0
1569605821343.75,-33,-39,39,0,0,0,0,0
1569605821375,-23,-46,27,0,0,0,0,0
1569605821406.25,-23,-36,17,0,0,0,0,0
1569605821437.5,-26,-29,16,0,0,0,0,0
1569605821468.75,-47,-19,25,0,0,0,0,0
1569605821500,-34,-2,22,0,0,0,0,0
1569605821531.25,-42,0,29,0,0,0,0,0
1569605821562.5,-44,-4,47,0,0,0,0,0
1569605821593.75,-34,-7,51,0,0,0,0,0
1569605821625,-17,-9,58,0,0,0,0,0
1569605821656.25,-28,-10,57,0,0,0,0,0
1569605821687.5,-40,-10,54,0,0,0,0,0
1569605821718.75,-41,-9,49,0,0,0,0,0
1569605821750,-50,-8,43,0,0,0,0,0
1569605821781.25,-42,-9,50,0,0,0,0,0
1569605821812.5,-13,-8,61,0,0,0,0,0
1569605821843.75,-6,-1,73,0,0,0,0,0
1569605821875,-35,-6,61,0,0,0,0,0
1569605821906.25,-21,-5,56,0,0,0,0,0
1569605821937.5,-26,-5,51,0,0,0,0,0
1569605821968.75,-19,-5,63,0,0,0,0,0
1569605822000,-9,-7,63,0,0,0,0,0
1569605822031.25,-14,-7,61,0,0,0,0,0
1569605822062.5,-15,-9,59,0,0,0,0,0
1569605822093.75,-17,-5,68,0,0,0,0,0
1569605822125,-21,-4,73,0,0,0,0,0
1569605822156.25,-11,0,81,0,0,0,0,0
1569605822187.5,-6,-1,80,0,0,0,0,0
1569605822218.75,-6,-8,65,0,0,0,0,0
1569605822250,-9,-12,56,0,0,0,0,0
1569605822281.25,-3,-24,44,0,0,0,0,0
1569605822312.5,0,-24,40,0,0,0,0,0
1569605822343.75,6,-20,45,0,0,0,0,0
1569605822375,14,-13,51,0,0,0,0,0
1569605822406.25,17,-7,54,0,0,0,0,0
1569605822437.5,11,3,61,0,0,0,0,0
1569605822468.75,12,9,64,0,0,0,0,0
1569605822500,4,14,70,0,0,0,0,0
1569605822531.25,3,16,71,0,0,0,0,0
1569605822562.5,-10,19,74,0,0,0,0,0
1569605822593.75,-21,18,58,0,0,0,0,0
1569605822625,-13,17,56,0,0,0,0,0
1569605822656.25,-8,20,66,0,0,0,0,0
1569605822687.5,-7,19,81,0,0,0,0,0
1569605822718.75,5,17,80,0,0,0,0,0
1569605822750,2,13,73,0,0,0,0,0
1569605822781.25,-4,8,60,0,0,0,0,0
1569605822812.5,-9,5,66,0,0,0,0,0
1569605822843.75,-10,-1,77,0,0,0,0,0
1569605822875,-8,-2,75,0,0,0,0,0
1569605822906.25,-10,-1,64,0,0,0,0,0
1569605822937.5,-16,1,70,0,0,0,0,0
1569605822968.75,-10,-4,65,0,0,0,0,0
1569605823000,16,-12,63,0,0,0,0,0
1569605823031.25,16,-10,60,0,0,0,0,0
1569605823062.5,13,-9,53,0,0,0,0,0
1569605823093.75,14,-10,44,0,0,0,0,0
1569605823125,21,-10,40,0,0,0,0,0
1569605823156.25,18,-9,28,0,0,0,0,0
1569605823187.5,25,2,23,0,0,0,0,0
1569605823218.75,19,4,44,0,0,0,0,0
1569605823250,39,-3,40,0,0,0,0,0
1569605823281.25,31,8,38,0,0,0,0,0
1569605823312.5,11,19,50,0,0,0,0,0
1569605823343.75,4,24,58,0,0,0,0,0
1569605823375,12,31,68,0,0,0,0,0
1569605823406.25,19,34,67,0,0,0,0,0
1569605823437.5,23,30,68,0,0,0,0,0
1569605823468.75,15,32,56,0,0,0,0,0
1569605823500,-5,37,40,0,0,0,0,0
1569605823531.25,-20,44,46,0,0,0,0,0
1569605823562.5,-21,51,49,0,0,0,0,0
1569605823593.75,-20,54,53,0,0,0,0,0
1569605823625,-23,59,56,0,0,0,0,0
1569605823656.25,-20,58,50,0,0,0,0,0
1569605823687.5,-22,55,47,0,0,0,0,0
1569605823718.75,-11,51,41,0,0,0,0,0
1569605823750,-7,51,40,0,0,0,0,0
1569605823781.25,-5,52,39,0,0,0,0,0
1569605823812.5,-7,53,40,0,0,0,0,0
1569605823843.75,-14,55,45,0,0,0,0,0
1569605823875,-6,55,42,0,0,0,0,0
1569605823906.25,-11,50,40,0,0,0,0,0
1569605823937.5,9,44,42,0,0,0,0,0
1569605823968.75,11,42,40,0,0,0,0,0
1569605824000,11,35,38,0,0,0,0,0
1569605824031.25,10,31,36,0,0,0,0,0
1569605824062.5,-2,37,40,0,0,0,0,0
1569605824093.75,-7,42,39,0,0,0,0,0
1569605824125,-7,43,46,0,0,0,0,0
1569605824156.25,-8,44,46,0,0,0,0,0
1569605824187.5,-12,47,47,0,0,0,0,0
1569605824218.75,-10,47,49,0,0,0,0,0
1569605824250,-8,46,56,0,0,0,0,0
1569605824281.25,-6,45,59,0,0,0,0,0
1569605824312.5,-6,43,60,0,0,0,0,0
1569605824343.75,-4,40,67,0,0,0,0,0
1569605824375,-10,37,64,0,0,0,0,0
1569605824406.25,-14,32,58,0,0,0,0,0
1569605824437.5,-17,31,55,0,0,0,0,0
1569605824468.75,-17,29,52,0,0,0,0,0
1569605824500,-18,28,50,0,0,0,0,0
1569605824531.25,-18,28,49,0,0,0,0,0
1569605824562.5,-16,28,50,0,0,0,0,0
1569605824593.75,-17,32,52,0,0,0,0,0
1569605824625,-19,35,54,0,0,0,0,0
1569605824656.25,-16,38,56,0,0,0,0,0
1569605824687.5,-13,37,56,0,0,0,0,0
1569605824718.75,-13,36,55,0,0,0,0,0
1569605824750,-11,33,54,0,0,0,0,0
1569605824781.25,-13,32,55,0,0,0,0,0
1569605824812.5,-14,34,57,0,0,0,0,0
1569605824843.75,-14,34,56,0,0,0,0,0
1569605824875,-11,33,53,0,0,0,0,0
1569605824906.25,-12,31,51,0,0,0,0,0
1569605824937.5,-13,27,49,0,0,0,0,0
1569605824968.75,-15,25,50,0,0,0,0,0
1569605825000,-17,25,55,0,0,0,0,0
1569605825031.25,-19,26,61,0,0,0,0,0
1569605825062.5,-20,28,66,0,0,0,0,0
1569605825093.75,-21,29,68,0,0,0,0,0
1569605825125,-15,27,68,0,0,0,0,0
1569605825156.25,-8,24,67,0,0,0,0,0
1569605825187.5,-10,25,63,0,0,0,0,0
1569605825218.75,-10,30,70,0,0,0,0,0
1569605825250,-14,29,74,0,0,0,0,0
1569605825281.25,-18,23,55,0,0,0,0,0
1569605825312.5,-25,22,49,0,0,0,0,0
1569605825343.75,-15,23,51,0,0,0,0,0
1569605825375,-9,21,56,0,0,0,0,0
1569605825406.25,-15,19,60,0,0,0,0,0
1569605825437.5,-26,18,61,0,0,0,0,0
1569605825468.75,-32,11,57,0,0,0,0,0
1569605825500,-34,11,61,0,0,0,0,0
1569605825531.25,-26,5,58,0,0,0,0,0
1569605825562.5,5,2,48,0,0,0,0,0
1569605825593.75,-18,-6,34,0,0,0,0,0
1569605825625,-38,-15,22,0,0,0,0,0
1569605825656.25,-32,-20,28,0,0,0,0,0
1569605825687.5,-10,-22,64,0,0,0,0,0
1569605825718.75,-66,-13,49,0,0,0,0,0
1569605825750,-71,-7,58,0,0,0,0,0
1569605825781.25,-71,-17,56,0,0,0,0,0
1569605825812.5,-48,-7,17,0,0,0,0,0
1569605825843.75,-54,-21,13,0,0,0,0,0
1569605825875,-30,-18,17,0,0,0,0,0
1569605825906.25,-32,-18,29,0,0,0,0,0
1569605825937.5,-30,-13,49,0,0,0,0,0
1569605825968.75,-42,-15,52,0,0,0,0,0
1569605826000,-55,-17,41,0,0,0,0,0
1569605826031.25,-47,-6,40,0,0,0,0,0
1569605826062.5,-45,-11,36,0,0,0,0,0
1569605826093.75,-47,-7,26,0,0,0,0,0
1569605826125,-58,-8,30,0,0,0,0,0
1569605826156.25,-75,-2,48,0,0,0,0,0
1569605826187.5,-60,5,55,0,0,0,0,0
1569605826218.75,-59,-8,51,0,0,0,0,0
1569605826250,-70,1,41,0,0,0,0,0
1569605826281.25,-61,3,30,0,0,0,0,0
1569605826312.5,-44,8,28,0,0,0,0,0
1569605826343.75,-33,18,51,0,0,0,0,0
1569605826375,-16,25,67,0,0,0,0,0
1569605826406.25,-33,28,43,0,0,0,0,0
1569605826437.5,-79,6,19,0,0,0,0,0
1569605826468.75,-70,7,25,0,0,0,0,0
1569605826500,-51,-4,14,0,0,0,0,0
1569605826531.25,-36,-6,18,0,0,0,0,0
1569605826562.5,-36,-6,27,0,0,0,0,0
1569605826593.75,-40,5,40,0,0,0,0,0
1569605826625,-65,12,43,0,0,0,0,0
1569605826656.25,-87,24,34,0,0,0,0,0
1569605826687.5,-79,24,20,0,0,0,0,0
1569605826718.75,-69,13,13,0,0,0,0,0
1569605826750,-42,11,22,0,0,0,0,0
1569605826781.25,-38,18,31,0,0,0,0,0
1569605826812.5,-53,25,36,0,0,0,0,0
1569605826843.75,-87,49,38,0,0,0,0,0
1569605826875,-68,46,40,0,0,0,0,0
1569605826906.25,-3,44,104,0,0,0,0,0
1569605826937.5,-1,37,127,0,0,0,0,0
1569605826968.75,12,9,29,0,0,0,0,0
1569605827000,-20,-14,-33,0,0,0,0,0
1569605827031.25,-79,-31,-68,0,0,0,0,0
1569605827062.5,-90,-32,-54,0,0,0,0,0
1569605827093.75,-15,-8,1,0,0,0,0,0
1569605827125,49,27,87,0,0,0,0,0
1569605827156.25,-86,-26,27,0,0,0,0,0
1569605827187.5,14,-11,26,0,0,0,0,0
1569605827218.75,33,-21,56,0,0,0,0,0
1569605827250,-24,3,25,0,0,0,0,0
1569605827281.25,-29,6,31,0,0,0,0,0
1569605827312.5,-67,13,47,0,0,0,0,0
1569605827343.75,-56,8,48,0,0,0,0,0
1569605827375,-57,20,58,0,0,0,0,0
1569605827406.25,-75,15,57,0,0,0,0,0
1569605827437.5,-60,9,42,0,0,0,0,0
1569605827468.75,-42,10,46,0,0,0,0,0
1569605827500,-59,0,30,0,0,0,0,0
1569605827531.25,-37,8,36,0,0,0,0,0
1569605827562.5,-51,7,42,0,0,0,0,0
1569605827593.75,-56,5,44,0,0,0,0,0
1569605827625,-53,9,40,0,0,0,0,0
1569605827656.25,-73,3,24,0,0,0,0,0
1569605827687.5,-70,3,37,0,0,0,0,0
1569605827718.75,-50,7,45,0,0,0,0,0
1569605827750,-47,9,44,0,0,0,0,0
1569605827781.25,-67,5,37,0,0,0,0,0
1569605827812.5,-45,4,46,0,0,0,0,0
1569605827843.75,-57,-4,35,0,0,0,0,0
1569605827875,-58,-10,31,0,0,0,0,0
1569605827906.25,-60,3,23,0,0,0,0,0
1569605827937.5,-55,3,22,0,0,0,0,0
1569605827968.75,-54,11,19,0,0,0,0,0
1569605828000,-56,10,16,0,0,0,0,0
1569605828031.25,-58,10,15,0,0,0,0,0
1569605828062.5,-62,10,16,0,0,0,0,0
1569605828093.75,-61,9,18,0,0,0,0,0
1569605828125,-60,12,16,0,0,0,0,0
1569605828156.25,-64,11,16,0,0,0,0,0
1569605828187.5,-51,10,30,0,0,0,0,0
1569605828218.75,-53,12,33,0,0,0,0,0
1569605828250,-60,11,33,0,0,0,0,0
1569605828281.25,-58,9,37,0,0,0,0,0
1569605828312.5,-74,8,42,0,0,0,0,0
1569605828343.75,-48,16,40,0,0,0,0,0
1569605828375,-43,4,43,0,0,0,0,0
1569605828406.25,-43,4,43,0,0,0,0,0
1569605828437.5,-53,4,41,0,0,0,0,0
1569605828468.75,-41,6,47,0,0,0,0,0
1569605828500,-39,6,47,0,0,0,0,0
1569605828531.25,-43,7,44,0,0,0,0,0
1569605828562.5,-44,7,45,0,0,0,0,0
1569605828593.75,-47,5,47,0,0,0,0,0
1569605828625,-46,4,45,0,0,0,0,0
1569605828656.25,-43,5,45,0,0,0,0,0
1569605828687.5,-42,4,44,0,0,0,0,0
1569605828718.75,-43,5,45,0,0,0,0,0
1569605828750,-43,6,45,0,0,0,0,0
1569605828781.25,-49,4,41,0,0,0,0,0
1569605828812.5,-49,3,42,0,0,0,0,0
1569605828843.75,-48,4,40,0,0,0,0,0
1569605828875,-50,4,37,0,0,0,0,0
1569605828906.25,-50,5,36,0,0,0,0,0
1569605828937.5,-56,3,32,0,0,0,0,0
1569605828968.75,-55,3,32,0,0,0,0,0
1569605829000,-56,5,34,0,0,0,0,0
1569605829031.25,-53,6,37,0,0,0,0,0
1569605829062.5,-53,5,37,0,0,0,0,0
1569605829093.75,-49,5,40,0,0,0,0,0
1569605829125,-49,5,40,0,0,0,0,0
1569605829156.25,-49,5,39,0,0,0,0,0
1569605829187.5,-51,4,37,0,0,0,0,0
1569605829218.75,-51,6,39,0,0,0,0,0
1569605829250,-41,8,49,0,0,0,0,0
1569605829281.25,-35,10,58,0,0,0,0,0
1569605829312.5,-34,5,61,0,0,0,0,0
1569605829343.75,-29,4,53,0,0,0,0,0
1569605829375,-27,2,56,0,0,0,0,0
1569605829406.25,-36,2,52,0,0,0,0,0
1569605829437.5,-43,3,49,0,0,0,0,0
1569605829468.75,-38,3,50,0,0,0,0,0
1569605829500,-40,4,48,0,0,0,0,0
1569605829531.25,-37,0,48,0,0,0,0,0
1569605829562.5,-38,-2,48,0,0,0,0,0
1569605829593.75,-27,-1,56,0,0,0,0,0
1569605829625,-33,2,54,0,0,0,0,0
1569605829656.25,-39,2,51,0,0,0,0,0
1569605829687.5,-41,2,49,0,0,0,0,0
1569605829718.75,-45,3,48,0,0,0,0,0
1569605829750,-41,2,50,0,0,0,0,0
1569605829781.25,-42,0,50,0,0,0,0,0
1569605829812.5,-42,-2,48,0,0,0,0,0
1569605829843.75,-39,-2,52,0,0,0,0,0
1569605829875,-34,-1,55,0,0,0,0,0
1569605829906.25,-35,2,59,0,0,0,0,0
1569605829937.5,-25,3,60,0,0,0,0,0
1569605829968.75,-33,-1,56,0,0,0,0,0
1569605830000,-30,-1,53,0,0,0,0,0
1569605830031.25,-32,-2,48,0,0,0,0,0
1569605830062.5,-33,-4,50,0,0,0,0,0
1569605830093.75,-32,-3,58,0,0,0,0,0
1569605830125,-36,-3,57,0,0,0,0,0
1569605830156.25,-41,1,55,0,0,0,0,0
1569605830187.5,-33,-2,54,0,0,0,0,0
1569605830218.75,-22,-2,51,0,0,0,0,0
1569605830250,-25,-2,51,0,0,0,0,0
1569605830281.25,-24,-2,57,0,0,0,0,0
1569605830312.5,-22,-2,55,0,0,0,0,0
1569605830343.75,-15,1,69,0,0,0,0,0
1569605830375,-20,1,63,0,0,0,0,0
1569605830406.25,-20,0,60,0,0,0,0,0
1569605830437.5,-19,0,62,0,0,0,0,0
1569605830468.75,-29,-1,62,0,0,0,0,0
1569605830500,-28,0,57,0,0,0,0,0
1569605830531.25,-34,0,53,0,0,0,0,0
1569605830562.5,-41,-1,48,0,0,0,0,0
1569605830593.75,-38,0,51,0,0,0,0,0
1569605830625,-31,-2,55,0,0,0,0,0
1569605830656.25,-31,-2,53,0,0,0,0,0
1569605830687.5,-30,-1,58,0,0,0,0,0
1569605830718.75,-30,-1,59,0,0,0,0,0
1569605830750,-34,-3,53,0,0,0,0,0
1569605830781.25,-30,0,46,0,0,0,0,0
1569605830812.5,-27,-4,56,0,0,0,0,0
1569605830843.75,-27,-3,61,0,0,0,0,0
1569605830875,-27,1,60,0,0,0,0,0
1569605830906.25,-32,0,56,0,0,0,0,0
1569605830937.5,-32,0,56,0,0,0,0,0
1569605830968.75,-32,1,58,0,0,0,0,0
1569605831000,-31,2,59,0,0,0,0,0
1569605831031.25,-32,0,56,0,0,0,0,0
1569605831062.5,-33,-1,54,0,0,0,0,0
1569605831093.75,-31,-2,53,0,0,0,0,0
1569605831125,-28,-2,54,0,0,0,0,0
1569605831156.25,-26,-2,55,0,0,0,0,0
1569605831187.5,-28,-2,56,0,0,0,0,0
1569605831218.75,-26,1,58,0,0,0,0,0
1569605831250,-30,0,56,0,0,0,0,0
1569605831281.25,-31,2,60,0,0,0,0,0
1569605831312.5,-28,1,61,0,0,0,0,0
1569605831343.75,-30,0,57,0,0,0,0,0
1569605831375,-28,0,54,0,0,0,0,0
1569605831406.25,-28,-1,55,0,0,0,0,0
1569605831437.5,-25,-1,57,0,0,0,0,0
1569605831468.75,-25,0,59,0,0,0,0,0
1569605831500,-25,0,61,0,0,0,0,0
1569605831531.25,-27,-1,58,0,0,0,0,0
1569605831562.5,-29,-1,57,0,0,0,0,0
1569605831593.75,-28,-3,60,0,0,0,0,0
1569605831625,-27,0,53,0,0,0,0,0
1569605831656.25,-45,-1,35,0,0,0,0,0
1569605831687.5,-60,-1,36,0,0,0,0,0
1569605831718.75,-52,0,41,0,0,0,0,0
1569605831750,-43,1,45,0,0,0,0,0
1569605831781.25,-46,0,44,0,0,0,0,0
1569605831812.5,-48,0,42,0,0,0,0,0
1569605831843.75,-50,-1,39,0,0,0,0,0
1569605831875,-51,-1,35,0,0,0,0,0
1569605831906.25,-50,0,36,0,0,0,0,0
1569605831937.5,-52,1,33,0,0,0,0,0
1569605831968.75,-57,0,28,0,0,0,0,0
1569605832000,-64,0,22,0,0,0,0,0
1569605832031.25,-64,-2,18,0,0,0,0,0
1569605832062.5,-64,-3,15,0,0,0,0,0
1569605832093.75,-63,-2,21,0,0,0,0,0
1569605832125,-55,0,29,0,0,0,0,0
1569605832156.25,-54,-1,33,0,0,0,0,0
1569605832187.5,-54,-1,32,0,0,0,0,0
1569605832218.75,-54,-2,32,0,0,0,0,0
1569605832250,-55,-2,31,0,0,0,0,0
1569605832281.25,-53,-3,31,0,0,0,0,0
1569605832312.5,-52,-4,31,0,0,0,0,0
1569605832343.75,-53,-4,28,0,0,0,0,0
1569605832375,-52,-3,30,0,0,0,0,0
1569605832406.25,-52,-3,35,0,0,0,0,0
1569605832437.5,-55,1,43,0,0,0,0,0
1569605832468.75,-47,3,45,0,0,0,0,0
1569605832500,-49,0,34,0,0,0,0,0
1569605832531.25,-49,-3,33,0,0,0,0,0
1569605832562.5,-53,-3,34,0,0,0,0,0
1569605832593.75,-51,-3,39,0,0,0,0,0
1569605832625,-50,-1,41,0,0,0,0,0
1569605832656.25,-51,0,46,0,0,0,0,0
1569605832687.5,-48,4,49,0,0,0,0,0
1569605832718.75,-60,5,35,0,0,0,0,0
1569605832750,-62,7,29,0,0,0,0,0
1569605832781.25,-61,-2,31,0,0,0,0,0
1569605832812.5,-58,-4,33,0,0,0,0,0
1569605832843.75,-42,-4,40,0,0,0,0,0
1569605832875,-45,-2,39,0,0,0,0,0
1569605832906.25,-53,0,39,0,0,0,0,0
1569605832937.5,-54,1,38,0,0,0,0,0
1569605832968.75,-54,-4,36,0,0,0,0,0
1569605833000,-63,5,26,0,0,0,0,0
1569605833031.25,-47,6,36,0,0,0,0,0
1569605833062.5,-31,7,46,0,0,0,0,0
1569605833093.75,-34,10,46,0,0,0,0,0
1569605833125,-23,9,50,0,0,0,0,0
1569605833156.25,-16,9,51,0,0,0,0,0
1569605833187.5,-28,7,53,0,0,0,0,0
1569605833218.75,-34,4,48,0,0,0,0,0
1569605833250,-41,2,42,0,0,0,0,0
1569605833281.25,-58,-1,45,0,0,0,0,0
1569605833312.5,-49,2,51,0,0,0,0,0
1569605833343.75,-24,4,55,0,0,0,0,0
1569605833375,-30,7,54,0,0,0,0,0
1569605833406.25,-36,23,66,0,0,0,0,0
1569605833437.5,-25,20,76,0,0,0,0,0
1569605833468.75,-27,15,72,0,0,0,0,0
1569605833500,-25,10,66,0,0,0,0,0
1569605833531.25,-30,3,53,0,0,0,0,0
1569605833562.5,-31,2,50,0,0,0,0,0
1569605833593.75,-32,2,47,0,0,0,0,0
1569605833625,-32,4,47,0,0,0,0,0
1569605833656.25,-39,3,53,0,0,0,0,0
1569605833687.5,-39,5,49,0,0,0,0,0
1569605833718.75,-36,5,53,0,0,0,0,0
1569605833750,-30,4,58,0,0,0,0,0
1569605833781.25,-32,4,57,0,0,0,0,0
1569605833812.5,-30,5,56,0,0,0,0,0
1569605833843.75,-31,4,56,0,0,0,0,0
1569605833875,-35,4,54,0,0,0,0,0
1569605833906.25,-37,4,52,0,0,0,0,0
1569605833937.5,-40,3,51,0,0,0,0,0
1569605833968.75,-41,2,47,0,0,0,0,0
1569605834000,-36,2,51,0,0,0,0,0
1569605834031.25,-35,3,52,0,0,0,0,0
1569605834062.5,-39,1,49,0,0,0,0,0
1569605834093.75,-42,2,48,0,0,0,0,0
1569605834125,-44,0,45,0,0,0,0,0
1569605834156.25,-44,1,45,0,0,0,0,0
1569605834187.5,-41,0,48,0,0,0,0,0
1569605834218.75,-39,1,51,0,0,0,0,0
1569605834250,-40,1,49,0,0,0,0,0
1569605834281.25,-40,0,49,0,0,0,0,0
1569605834312.5,-37,1,51,0,0,0,0,0
1569605834343.75,-37,1,52,0,0,0,0,0
1569605834375,-40,1,51,0,0,0,0,0
1569605834406.25,-39,1,52,0,0,0,0,0
1569605834437.5,-39,2,54,0,0,0,0,0
1569605834468.75,-45,1,50,0,0,0,0,0
1569605834500,-49,1,44,0,0,0,0,0
1569605834531.25,-36,-1,51,0,0,0,0,0
1569605834562.5,-28,-2,54,0,0,0,0,0
1569605834593.75,-21,-1,57,0,0,0,0,0
1569605834625,-29,-2,55,0,0,0,0,0
1569605834656.25,-32,-2,55,0,0,0,0,0
1569605834687.5,-31,-2,57,0,0,0,0,0
1569605834718.75,-31,-2,56,0,0,0,0,0
1569605834750,-30,-1,55,0,0,0,0,0
1569605834781.25,-30,-2,55,0,0,0,0,0
1569605834812.5,-32,-2,54,0,0,0,0,0
1569605834843.75,-31,-2,55,0,0,0,0,0
1569605834875,-27,-1,58,0,0,0,0,0
1569605834906.25,-28,-1,58,0,0,0,0,0
1569605834937.5,-30,-1,57,0,0,0,0,0
1569605834968.75,-29,-1,57,0,0,0,0,0
1569605835000,-29,-2,55,0,0,0,0,0
1569605835031.25,-27,-5,53,0,0,0,0,0
1569605835062.5,-25,-5,54,0,0,0,0,0
1569605835093.75,-26,0,56,0,0,0,0,0
1569605835125,-26,2,59,0,0,0,0,0
1569605835156.25,-30,5,65,0,0,0,0,0
1569605835187.5,-28,4,67,0,0,0,0,0
1569605835218.75,-30,3,61,0,0,0,0,0
1569605835250,-30,1,58,0,0,0,0,0
1569605835281.25,-26,-1,55,0,0,0,0,0
1569605835312.5,-27,-1,52,0,0,0,0,0
1569605835343.75,-29,-3,50,0,0,0,0,0
1569605835375,-24,-2,60,0,0,0,0,0
1569605835406.25,-26,-1,62,0,0,0,0,0
1569605835437.5,-31,0,55,0,0,0,0,0
1569605835468.75,-32,1,57,0,0,0,0,0
1569605835500,-36,0,55,0,0,0,0,0
1569605835531.25,-35,0,57,0,0,0,0,0
1569605835562.5,-32,-1,58,0,0,0,0,0
1569605835593.75,-35,-2,59,0,0,0,0,0
1569605835625,-42,1,53,0,0,0,0,0
1569605835656.25,-43,1,44,0,0,0,0,0
1569605835687.5,-47,-5,29,0,0,0,0,0
1569605835718.75,-54,-6,32,0,0,0,0,0
1569605835750,-56,-4,30,0,0,0,0,0
1569605835781.25,-52,-4,33,0,0,0,0,0
1569605835812.5,-52,-4,35,0,0,0,0,0
1569605835843.75,-51,-4,32,0,0,0,0,0
1569605835875,-53,-5,30,0,0,0,0,0
1569605835906.25,-55,-4,31,0,0,0,0,0
1569605835937.5,-52,-2,31,0,0,0,0,0
1569605835968.75,-57,-4,29,0,0,0,0,0
1569605836000,-55,-3,27,0,0,0,0,0
1569605836031.25,-55,-2,24,0,0,0,0,0
1569605836062.5,-57,0,23,0,0,0,0,0
1569605836093.75,-59,1,29,0,0,0,0,0
1569605836125,-61,0,29,0,0,0,0,0
1569605836156.25,-63,0,24,0,0,0,0,0
1569605836187.5,-63,1,18,0,0,0,0,0
1569605836218.75,-62,1,13,0,0,0,0,0
1569605836250,-63,-1,12,0,0,0,0,0
1569605836281.25,-62,-2,11,0,0,0,0,0
1569605836312.5,-64,0,18,0,0,0,0,0
1569605836343.75,-60,0,22,0,0,0,0,0
1569605836375,-57,0,23,0,0,0,0,0
1569605836406.25,-58,-1,23,0,0,0,0,0
1569605836437.5,-58,-1,23,0,0,0,0,0
1569605836468.75,-58,-1,25,0,0,0,0,0
1569605836500,-58,0,25,0,0,0,0,0
1569605836531.25,-58,0,24,0,0,0,0,0
1569605836562.5,-59,0,23,0,0,0,0,0
1569605836593.75,-60,0,24,0,0,0,0,0
1569605836625,-59,0,24,0,0,0,0,0
1569605836656.25,-55,-1,24,0,0,0,0,0
1569605836687.5,-57,-1,24,0,0,0,0,0
1569605836718.75,-57,-1,27,0,0,0,0,0
1569605836750,-58,0,28,0,0,0,0,0
1569605836781.25,-59,0,29,0,0,0,0,0
1569605836812.5,-57,1,29,0,0,0,0,0
1569605836843.75,-57,1,31,0,0,0,0,0
1569605836875,-54,1,34,0,0,0,0,0
1569605836906.25,-49,1,41,0,0,0,0,0
1569605836937.5,-45,1,42,0,0,0,0,0
1569605836968.75,-51,0,40,0,0,0,0,0
1569605837000,-53,1,36,0,0,0,0,0
1569605837031.25,-52,0,37,0,0,0,0,0
1569605837062.5,-55,0,35,0,0,0,0,0
1569605837093.75,-54,1,37,0,0,0,0,0
1569605837125,-46,0,43,0,0,0,0,0
1569605837156.25,-45,-1,43,0,0,0,0,0
1569605837187.5,-46,-2,42,0,0,0,0,0
1569605837218.75,-48,-2,41,0,0,0,0,0
1569605837250,-48,-3,39,0,0,0,0,0
1569605837281.25,-49,-5,38,0,0,0,0,0
1569605837312.5,-43,-1,45,0,0,0,0,0
1569605837343.75,-35,-1,53,0,0,0,0,0
1569605837375,-22,2,65,0,0,0,0,0
1569605837406.25,-29,-1,60,0,0,0,0,0
1569605837437.5,-33,-2,53,0,0,0,0,0
1569605837468.75,-24,-2,59,0,0,0,0,0
1569605837500,-23,-1,61,0,0,0,0,0
1569605837531.25,-25,-1,60,0,0,0,0,0
1569605837562.5,-27,0,56,0,0,0,0,0
1569605837593.75,-32,-2,55,0,0,0,0,0
1569605837625,-33,-1,55,0,0,0,0,0
1569605837656.25,-34,-1,53,0,0,0,0,0
1569605837687.5,-34,-1,48,0,0,0,0,0
1569605837718.75,-16,1,60,0,0,0,0,0
1569605837750,-22,-1,63,0,0,0,0,0
1569605837781.25,-19,5,64,0,0,0,0,0
1569605837812.5,-19,5,62,0,0,0,0,0
1569605837843.75,-19,2,65,0,0,0,0,0
1569605837875,-21,2,64,0,0,0,0,0
1569605837906.25,-22,3,61,0,0,0,0,0
1569605837937.5,-25,4,66,0,0,0,0,0
1569605837968.75,-29,3,67,0,0,0,0,0
1569605838000,-41,-5,51,0,0,0,0,0
1569605838031.25,-5,-5,33,0,0,0,0,0
1569605838062.5,-49,-9,50,0,0,0,0,0
1569605838093.75,-34,-3,57,0,0,0,0,0
1569605838125,-35,-4,51,0,0,0,0,0
1569605838156.25,-43,-6,49,0,0,0,0,0
1569605838187.5,-38,-4,50,0,0,0,0,0
1569605838218.75,-38,-4,48,0,0,0,0,0
1569605838250,-40,-4,50,0,0,0,0,0
1569605838281.25,-42,-6,45,0,0,0,0,0
1569605838312.5,-38,-6,47,0,0,0,0,0
1569605838343.75,-44,-5,47,0,0,0,0,0
1569605838375,-44,-4,47,0,0,0,0,0
1569605838406.25,-35,-4,51,0,0,0,0,0
1569605838437.5,-31,-2,54,0,0,0,0,0
1569605838468.75,-36,-4,54,0,0,0,0,0
1569605838500,-34,-2,54,0,0,0,0,0
1569605838531.25,-29,-3,57,0,0,0,0,0
1569605838562.5,-31,-2,58,0,0,0,0,0
1569605838593.75,-31,0,54,0,0,0,0,0
1569605838625,-29,-2,55,0,0,0,0,0
1569605838656.25,-30,-2,56,0,0,0,0,0
1569605838687.5,-24,0,60,0,0,0,0,0
1569605838718.75,-30,0,61,0,0,0,0,0
1569605838750,-26,0,55,0,0,0,0,0
1569605838781.25,-28,0,57,0,0,0,0,0
1569605838812.5,-33,-1,54,0,0,0,0,0
1569605838843.75,-30,0,53,0,0,0,0,0
1569605838875,-31,-1,58,0,0,0,0,0
1569605838906.25,-29,0,61,0,0,0,0,0
1569605838937.5,-29,0,57,0,0,0,0,0
1569605838968.75,-32,0,55,0,0,0,0,0
1569605839000,-35,-1,55,0,0,0,0,0
1569605839031.25,-35,-1,53,0,0,0,0,0
1569605839062.5,-32,-2,53,0,0,0,0,0
1569605839093.75,-32,-2,53,0,0,0,0,0
1569605839125,-32,-2,53,0,0,0,0,0
1569605839156.25,-33,-1,56,0,0,0,0,0
1569605839187.5,-34,-1,56,0,0,0,0,0
1569605839218.75,-32,-2,55,0,0,0,0,0
1569605839250,-33,0,55,0,0,0,0,0
1569605839281.25,-32,-1,54,0,0,0,0,0
1569605839312.5,-31,-1,55,0,0,0,0,0
1569605839343.75,-28,-1,55,0,0,0,0,0
1569605839375,-31,-1,55,0,0,0,0,0
1569605839406.25,-33,1,60,0,0,0,0,0
1569605839437.5,-32,2,59,0,0,0,0,0
1569605839468.75,-30,1,56,0,0,0,0,0
1569605839500,-29,-1,56,0,0,0,0,0
1569605839531.25,-28,-1,56,0,0,0,0,0
1569605839562.5,-30,0,56,0,0,0,0,0
1569605839593.75,-31,1,57,0,0,0,0,0
1569605839625,-28,1,55,0,0,0,0,0
1569605839656.25,-29,1,55,0,0,0,0,0
1569605839687.5,-34,0,57,0,0,0,0,0
1569605839718.75,-32,1,58,0,0,0,0,0
1569605839750,-32,2,56,0,0,0,0,0
1569605839781.25,-33,0,55,0,0,0,0,0
1569605839812.5,-31,0,55,0,0,0,0,0
1569605839843.75,-29,0,55,0,0,0,0,0
1569605839875,-26,0,58,0,0,0,0,0
1569605839906.25,-26,0,59,0,0,0,0,0
1569605839937.5,-25,0,57,0,0,0,0,0
1569605839968.75,-30,0,57,0,0,0,0,0
1569605840000,-31,0,57,0,0,0,0,0
1569605840031.25,-33,0,55,0,0,0,0,0
1569605840062.5,-32,0,55,0,0,0,0,0
1569605840093.75,-32,0,56,0,0,0,0,0
1569605840125,-30,0,55,0,0,0,0,0
1569605840156.25,-34,-1,53,0,0,0,0,0
1569605840187.5,-32,0,56,0,0,0,0,0
1569605840218.75,-26,-1,58,0,0,0,0,0
1569605840250,-27,0,59,0,0,0,0,0
1569605840281.25,-30,0,53,0,0,0,0,0
1569605840312.5,-38,-2,53,0,0,0,0,0
1569605840343.75,-38,1,55,0,0,0,0,0
1569605840375,-35,0,54,0,0,0,0,0
1569605840406.25,-37,0,51,0,0,0,0,0
1569605840437.5,-38,-1,51,0,0,0,0,0
1569605840468.75,-38,-1,49,0,0,0,0,0
1569605840500,-39,-1,49,0,0,0,0,0
1569605840531.25,-37,-1,51,0,0,0,0,0
1569605840562.5,-38,-2,50,0,0,0,0,0
1569605840593.75,-39,-2,51,0,0,0,0,0
1569605840625,-38,0,51,0,0,0,0,0
1569605840656.25,-39,0,51,0,0,0,0,0
1569605840687.5,-41,-2,51,0,0,0,0,0
1569605840718.75,-37,-2,52,0,0,0,0,0
1569605840750,-37,-1,49,0,0,0,0,0
1569605840781.25,-34,-2,52,0,0,0,0,0
1569605840812.5,-32,-2,53,0,0,0,0,0
1569605840843.75,-37,-2,53,0,0,0,0,0
1569605840875,-37,0,53,0,0,0,0,0
1569605840906.25,-36,-1,52,0,0,0,0,0
1569605840937.5,-37,-2,52,0,0,0,0,0
1569605840968.75,-35,-1,52,0,0,0,0,0
1569605841000,-36,-1,52,0,0,0,0,0
1569605841031.25,-31,-3,54,0,0,0,0,0
1569605841062.5,-33,-1,54,0,0,0,0,0
1569605841093.75,-32,-1,55,0,0,0,0,0
1569605841125,-35,-2,53,0,0,0,0,0
1569605841156.25,-36,-2,52,0,0,0,0,0
1569605841187.5,-34,0,52,0,0,0,0,0
1569605841218.75,-35,-1,52,0,0,0,0,0
1569605841250,-34,-2,55,0,0,0,0,0
1569605841281.25,-32,0,56,0,0,0,0,0
1569605841312.5,-35,0,55,0,0,0,0,0
1569605841343.75,-32,0,56,0,0,0,0,0
1569605841375,-32,-1,56,0,0,0,0,0
1569605841406.25,-33,-1,55,0,0,0,0,0
1569605841437.5,-34,0,54,0,0,0,0,0
1569605841468.75,-33,0,55,0,0,0,0,0
1569605841500,-35,0,54,0,0,0,0,0
1569605841531.25,-34,0,55,0,0,0,0,0
1569605841562.5,-34,-1,54,0,0,0,0,0
1569605841593.75,-31,-2,52,0,0,0,0,0
1569605841625,-32,-2,53,0,0,0,0,0
1569605841656.25,-36,0,58,0,0,0,0,0
1569605841687.5,-37,1,49,0,0,0,0,0
1569605841718.75,-39,0,51,0,0,0,0,0
1569605841750,-37,1,53,0,0,0,0,0
1569605841781.25,-42,0,51,0,0,0,0,0
1569605841812.5,-36,1,50,0,0,0,0,0
1569605841843.75,-35,1,55,0,0,0,0,0
1569605841875,-33,0,56,0,0,0,0,0
1569605841906.25,-33,-1,54,0,0,0,0,0
1569605841937.5,-28,-1,51,0,0,0,0,0
1569605841968.75,-38,-2,51,0,0,0,0,0
1569605842000,-39,2,57,0,0,0,0,0
1569605842031.25,-35,8,56,0,0,0,0,0
1569605842062.5,-42,0,51,0,0,0,0,0
1569605842093.75,-38,0,52,0,0,0,0,0
1569605842125,-36,0,51,0,0,0,0,0
1569605842156.25,-33,3,52,0,0,0,0,0
1569605842187.5,-34,-1,52,0,0,0,0,0
1569605842218.75,-32,-1,52,0,0,0,0,0
1569605842250,-33,2,54,0,0,0,0,0
1569605842281.25,-33,2,54,0,0,0,0,0
1569605842312.5,-36,2,58,0,0,0,0,0
1569605842343.75,-34,2,55,0,0,0,0,0
1569605842375,-35,2,51,0,0,0,0,0
1569605842406.25,-36,0,52,0,0,0,0,0
1569605842437.5,-34,0,55,0,0,0,0,0
1569605842468.75,-31,2,56,0,0,0,0,0
1569605842500,-31,1,55,0,0,0,0,0
1569605842531.25,-32,0,55,0,0,0,0,0
1569605842562.5,-35,1,53,0,0,0,0,0
1569605842593.75,-34,0,54,0,0,0,0,0
1569605842625,-33,1,55,0,0,0,0,0
1569605842656.25,-35,1,59,0,0,0,0,0
1569605842687.5,-33,1,57,0,0,0,0,0
1569605842718.75,-32,-1,53,0,0,0,0,0
1569605842750,-31,-2,54,0,0,0,0,0
1569605842781.25,-30,-2,54,0,0,0,0,0
1569605842812.5,-32,-2,52,0,0,0,0,0
1569605842843.75,-32,-1,53,0,0,0,0,0
1569605842875,-33,0,56,0,0,0,0,0
1569605842906.25,-32,1,58,0,0,0,0,0
1569605842937.5,-32,1,57,0,0,0,0,0
1569605842968.75,-31,0,56,0,0,0,0,0
1569605843000,-32,0,55,0,0,0,0,0
1569605843031.25,-31,0,55,0,0,0,0,0
1569605843062.5,-29,0,56,0,0,0,0,0
1569605843093.75,-30,0,56,0,0,0,0,0
1569605843125,-32,0,54,0,0,0,0,0
1569605843156.25,-33,-1,55,0,0,0,0,0
1569605843187.5,-31,-1,54,0,0,0,0,0
1569605843218.75,-30,-1,56,0,0,0,0,0
1569605843250,-32,0,56,0,0,0,0,0
1569605843281.25,-32,1,57,0,0,0,0,0
1569605843312.5,-28,1,58,0,0,0,0,0
1569605843343.75,-31,0,54,0,0,0,0,0
1569605843375,-31,0,55,0,0,0,0,0
1569605843406.25,-33,1,55,0,0,0,0,0
1569605843437.5,-33,1,56,0,0,0,0,0
1569605843468.75,-31,4,59,0,0,0,0,0
1569605843500,-31,4,62,0,0,0,0,0
1569605843531.25,-28,0,64,0,0,0,0,0
1569605843562.5,-29,-1,57,0,0,0,0,0
1569605843593.75,-29,-1,57,0,0,0,0,0
1569605843625,-36,-2,49,0,0,0,0,0
1569605843656.25,-35,-5,38,0,0,0,0,0
1569605843687.5,-50,-5,34,0,0,0,0,0
1569605843718.75,-56,-6,43,0,0,0,0,0
1569605843750,-29,0,58,0,0,0,0,0
1569605843781.25,-26,-1,64,0,0,0,0,0
1569605843812.5,-13,5,68,0,0,0,0,0
1569605843843.75,-7,-1,67,0,0,0,0,0
1569605843875,-1,-7,62,0,0,0,0,0
1569605843906.25,-7,-7,58,0,0,0,0,0
1569605843937.5,-9,-3,56,0,0,0,0,0
1569605843968.75,-4,0,70,0,0,0,0,0
1569605844000,-3,0,72,0,0,0,0,0
1569605844031.25,-15,-2,67,0,0,0,0,0
1569605844062.5,-18,4,58,0,0,0,0,0
1569605844093.75,-34,2,36,0,0,0,0,0
1569605844125,-66,-11,13,0,0,0,0,0
1569605844156.25,-60,2,21,0,0,0,0,0
1569605844187.5,-53,6,27,0,0,0,0,0
1569605844218.75,-54,9,26,0,0,0,0,0
1569605844250,-59,13,16,0,0,0,0,0
1569605844281.25,-79,7,-8,0,0,0,0,0
1569605844312.5,-81,6,-6,0,0,0,0,0
1569605844343.75,-65,1,14,0,0,0,0,0
1569605844375,-63,-1,10,0,0,0,0,0
1569605844406.25,-60,1,13,0,0,0,0,0
1569605844437.5,-50,2,23,0,0,0,0,0
1569605844468.75,-47,1,23,0,0,0,0,0
1569605844500,-53,-4,21,0,0,0,0,0
1569605844531.25,-55,-5,17,0,0,0,0,0
1569605844562.5,-61,-6,19,0,0,0,0,0
1569605844593.75,-61,-5,18,0,0,0,0,0
1569605844625,-69,-3,15,0,0,0,0,0
1569605844656.25,-72,-1,12,0,0,0,0,0
1569605844687.5,-70,1,10,0,0,0,0,0
1569605844718.75,-69,0,8,0,0,0,0,0
1569605844750,-66,-1,9,0,0,0,0,0
1569605844781.25,-61,-2,16,0,0,0,0,0
1569605844812.5,-55,-2,22,0,0,0,0,0
1569605844843.75,-51,-5,27,0,0,0,0,0
1569605844875,-54,-4,27,0,0,0,0,0
1569605844906.25,-56,2,34,0,0,0,0,0
1569605844937.5,-58,2,34,0,0,0,0,0
1569605844968.75,-45,1,29,0,0,0,0,0
1569605845000,-48,0,28,0,0,0,0,0
1569605845031.25,-60,1,32,0,0,0,0,0
1569605845062.5,-69,1,34,0,0,0,0,0
1569605845093.75,-81,-8,47,0,0,0,0,0
1569605845125,-76,-18,54,0,0,0,0,0
1569605845156.25,-68,-42,77,0,0,0,0,0
1569605845187.5,-55,-52,61,0,0,0,0,0
1569605845218.75,-45,-54,36,0,0,0,0,0
1569605845250,-29,-42,27,0,0,0,0,0
1569605845281.25,-24,-41,29,0,0,0,0,0
1569605845312.5,-14,-35,31,0,0,0,0,0
1569605845343.75,-17,-34,31,0,0,0,0,0
1569605845375,-26,-26,26,0,0,0,0,0
1569605845406.25,-26,-24,31,0,0,0,0,0
1569605845437.5,-27,-21,36,0,0,0,0,0
1569605845468.75,-41,-18,24,0,0,0,0,0
1569605845500,-72,-7,6,0,0,0,0,0
1569605845531.25,-75,0,10,0,0,0,0,0
1569605845562.5,-67,5,20,0,0,0,0,0
1569605845593.75,-49,5,35,0,0,0,0,0
1569605845625,-26,-1,51,0,0,0,0,0
1569605845656.25,-29,-8,48,0,0,0,0,0
1569605845687.5,-34,-10,46,0,0,0,0,0
1569605845718.75,-34,-13,42,0,0,0,0,0
1569605845750,-37,-8,33,0,0,0,0,0
1569605845781.25,-36,-12,45,0,0,0,0,0
1569605845812.5,-24,-11,74,0,0,0,0,0
1569605845843.75,-36,-18,73,0,0,0,0,0
1569605845875,-36,-21,58,0,0,0,0,0
1569605845906.25,19,-20,57,0,0,0,0,0
1569605845937.5,23,-23,55,0,0,0,0,0
1569605845968.75,-5,-30,64,0,0,0,0,0
1569605846000,-1,-26,59,0,0,0,0,0
1569605846031.25,-4,-25,61,0,0,0,0,0
1569605846062.5,-7,-20,60,0,0,0,0,0
1569605846093.75,-2,-18,61,0,0,0,0,0
1569605846125,-2,-19,60,0,0,0,0,0
1569605846156.25,1,-20,61,0,0,0,0,0
1569605846187.5,-6,-22,58,0,0,0,0,0
1569605846218.75,0,-21,60,0,0,0,0,0
1569605846250,3,-23,60,0,0,0,0,0
1569605846281.25,5,-22,60,0,0,0,0,0
1569605846312.5,5,-22,60,0,0,0,0,0
1569605846343.75,3,-22,61,0,0,0,0,0
1569605846375,3,-22,59,0,0,0,0,0
1569605846406.25,4,-22,64,0,0,0,0,0
1569605846437.5,-2,-23,58,0,0,0,0,0
1569605846468.75,-19,-21,59,0,0,0,0,0
1569605846500,-19,-22,58,0,0,0,0,0
1569605846531.25,-9,-18,60,0,0,0,0,0
1569605846562.5,-8,-19,61,0,0,0,0,0
1569605846593.75,-10,-20,58,0,0,0,0,0
1569605846625,-10,-22,59,0,0,0,0,0
1569605846656.25,-13,-19,61,0,0,0,0,0
1569605846687.5,-15,-19,60,0,0,0,0,0
1569605846718.75,-13,-19,60,0,0,0,0,0
1569605846750,-16,-19,58,0,0,0,0,0
1569605846781.25,1,-22,61,0,0,0,0,0
1569605846812.5,1,-23,62,0,0,0,0,0
1569605846843.75,6,-21,59,0,0,0,0,0
1569605846875,8,-22,57,0,0,0,0,0
1569605846906.25,8,-22,59,0,0,0,0,0
1569605846937.5,7,-23,60,0,0,0,0,0
1569605846968.75,10,-23,59,0,0,0,0,0
1569605847000,11,-23,59,0,0,0,0,0
1569605847031.25,7,-24,58,0,0,0,0,0
1569605847062.5,10,-22,60,0,0,0,0,0
1569605847093.75,5,-22,59,0,0,0,0,0
1569605847125,8,-20,61,0,0,0,0,0
1569605847156.25,7,-22,60,0,0,0,0,0
1569605847187.5,14,-24,53,0,0,0,0,0
1569605847218.75,8,-28,55,0,0,0,0,0
1569605847250,11,-26,60,0,0,0,0,0
1569605847281.25,6,-23,60,0,0,0,0,0
1569605847312.5,0,-21,61,0,0,0,0,0
1569605847343.75,3,-19,59,0,0,0,0,0
1569605847375,6,-20,59,0,0,0,0,0
1569605847406.25,9,-25,58,0,0,0,0,0
1569605847437.5,13,-27,56,0,0,0,0,0
1569605847468.75,9,-24,59,0,0,0,0,0
1569605847500,11,-22,58,0,0,0,0,0
1569605847531.25,8,-24,59,0,0,0,0,0
1569605847562.5,7,-24,58,0,0,0,0,0
1569605847593.75,10,-23,59,0,0,0,0,0
1569605847625,13,-24,59,0,0,0,0,0
1569605847656.25,14,-26,56,0,0,0,0,0
1569605847687.5,-2,-24,62,0,0,0,0,0
1569605847718.75,-4,-23,61,0,0,0,0,0
1569605847750,-5,-23,57,0,0,0,0,0
1569605847781.25,-4,-22,63,0,0,0,0,0
1569605847812.5,-12,-20,62,0,0,0,0,0
1569605847843.75,-8,-19,63,0,0,0,0,0
1569605847875,-4,-22,60,0,0,0,0,0
1569605847906.25,-3,-20,61,0,0,0,0,0
1569605847937.5,-2,-19,60,0,0,0,0,0
1569605847968.75,-3,-20,65,0,0,0,0,0
1569605848000,2,-19,62,0,0,0,0,0
1569605848031.25,1,-22,56,0,0,0,0,0
1569605848062.5,0,-31,48,0,0,0,0,0
1569605848093.75,11,-29,57,0,0,0,0,0
1569605848125,13,-24,63,0,0,0,0,0
1569605848156.25,16,-18,64,0,0,0,0,0
1569605848187.5,8,-20,63,0,0,0,0,0
1569605848218.75,2,-23,61,0,0,0,0,0
1569605848250,2,-23,62,0,0,0,0,0
1569605848281.25,-3,-25,61,0,0,0,0,0
1569605848312.5,1,-26,61,0,0,0,0,0
1569605848343.75,10,-28,54,0,0,0,0,0
1569605848375,12,-32,49,0,0,0,0,0
1569605848406.25,9,-36,45,0,0,0,0,0
1569605848437.5,7,-37,50,0,0,0,0,0
1569605848468.75,15,-31,57,0,0,0,0,0
1569605848500,28,-28,74,0,0,0,0,0
1569605848531.25,35,-26,79,0,0,0,0,0
1569605848562.5,22,-34,44,0,0,0,0,0
1569605848593.75,-5,-33,30,0,0,0,0,0
1569605848625,-51,-40,26,0,0,0,0,0
1569605848656.25,-42,-38,34,0,0,0,0,0
1569605848687.5,-27,-35,40,0,0,0,0,0
1569605848718.75,-33,-37,30,0,0,0,0,0
1569605848750,-49,-39,29,0,0,0,0,0
1569605848781.25,-48,-43,31,0,0,0,0,0
1569605848812.5,-34,-37,40,0,0,0,0,0
1569605848843.75,-31,-34,47,0,0,0,0,0
1569605848875,-26,-36,46,0,0,0,0,0
1569605848906.25,-30,-38,39,0,0,0,0,0
1569605848937.5,-28,-40,40,0,0,0,0,0
1569605848968.75,-34,-38,39,0,0,0,0,0
1569605849000,-38,-37,39,0,0,0,0,0
1569605849031.25,-47,-33,40,0,0,0,0,0
1569605849062.5,-57,-31,31,0,0,0,0,0
1569605849093.75,-68,5,0,0,0,0,0,0
1569605849125,-39,9,10,0,0,0,0,0
1569605849156.25,-12,-21,12,0,0,0,0,0
1569605849187.5,6,-35,17,0,0,0,0,0
1569605849218.75,1,-62,10,0,0,0,0,0
1569605849250,-19,-107,28,0,0,0,0,0
1569605849281.25,-15,-107,60,0,0,0,0,0
1569605849312.5,-21,-52,94,0,0,0,0,0
1569605849343.75,-7,-46,90,0,0,0,0,0
1569605849375,-3,-42,62,0,0,0,0,0
1569605849406.25,-6,-38,35,0,0,0,0,0
1569605849437.5,-16,-28,35,0,0,0,0,0
1569605849468.75,-17,-36,36,0,0,0,0,0
1569605849500,3,-50,39,0,0,0,0,0
1569605849531.25,7,-57,38,0,0,0,0,0
1569605849562.5,-11,-62,41,0,0,0,0,0
1569605849593.75,-17,-61,43,0,0,0,0,0
1569605849625,-20,-46,46,0,0,0,0,0
1569605849656.25,5,-33,40,0,0,0,0,0
1569605849687.5,6,-50,36,0,0,0,0,0
1569605849718.75,0,-33,56,0,0,0,0,0
1569605849750,7,-29,53,0,0,0,0,0
1569605849781.25,-4,-25,49,0,0,0,0,0
1569605849812.5,-5,-28,51,0,0,0,0,0
1569605849843.75,-4,-40,52,0,0,0,0,0
1569605849875,4,-43,46,0,0,0,0,0
1569605849906.25,4,-47,49,0,0,0,0,0
1569605849937.5,-10,-35,68,0,0,0,0,0
1569605849968.75,-17,-19,61,0,0,0,0,0
1569605850000,-44,-23,61,0,0,0,0,0
1569605850031.25,-37,-31,37,0,0,0,0,0
1569605850062.5,-55,-41,29,0,0,0,0,0
1569605850093.75,-56,-40,24,0,0,0,0,0
1569605850125,-18,-35,48,0,0,0,0,0
1569605850156.25,-22,-37,53,0,0,0,0,0
1569605850187.5,-32,-32,39,0,0,0,0,0
1569605850218.75,-29,-32,42,0,0,0,0,0
1569605850250,-31,-34,46,0,0,0,0,0
1569605850281.25,-27,-35,46,0,0,0,0,0
1569605850312.5,-25,-39,47,0,0,0,0,0
1569605850343.75,-27,-40,48,0,0,0,0,0
1569605850375,-32,-35,42,0,0,0,0,0
1569605850406.25,-30,-31,44,0,0,0,0,0
1569605850437.5,-29,-33,45,0,0,0,0,0
1569605850468.75,-32,-35,44,0,0,0,0,0
1569605850500,-26,-36,47,0,0,0,0,0
1569605850531.25,-28,-36,44,0,0,0,0,0
1569605850562.5,-28,-33,45,0,0,0,0,0
1569605850593.75,-27,-33,44,0,0,0,0,0
1569605850625,-33,-36,41,0,0,0,0,0
1569605850656.25,-32,-36,41,0,0,0,0,0
1569605850687.5,-31,-37,44,0,0,0,0,0
1569605850718.75,-29,-36,43,0,0,0,0,0
1569605850750,-32,-36,43,0,0,0,0,0
1569605850781.25,-27,-36,45,0,0,0,0,0
1569605850812.5,-31,-36,41,0,0,0,0,0
1569605850843.75,-34,-36,40,0,0,0,0,0
1569605850875,-31,-35,43,0,0,0,0,0
1569605850906.25,-33,-35,40,0,0,0,0,0
1569605850937.5,-36,-37,38,0,0,0,0,0
1569605850968.75,-38,-37,36,0,0,0,0,0
1569605851000,-40,-37,35,0,0,0,0,0
1569605851031.25,-40,-37,36,0,0,0,0,0
1569605851062.5,-32,-34,46,0,0,0,0,0
1569605851093.75,-33,-36,42,0,0,0,0,0
1569605851125,-22,-36,42,0,0,0,0,0
1569605851156.25,-30,-34,40,0,0,0,0,0
1569605851187.5,-29,-37,43,0,0,0,0,0
1569605851218.75,-30,-37,43,0,0,0,0,0
1569605851250,-30,-37,42,0,0,0,0,0
1569605851281.25,-28,-38,43,0,0,0,0,0
1569605851312.5,-32,-38,42,0,0,0,0,0
1569605851343.75,-36,-38,38,0,0,0,0,0
1569605851375,-39,-36,36,0,0,0,0,0
1569605851406.25,-20,-37,43,0,0,0,0,0
1569605851437.5,-24,-35,42,0,0,0,0,0
1569605851468.75,-34,-36,42,0,0,0,0,0
1569605851500,-30,-38,41,0,0,0,0,0
1569605851531.25,-33,-38,41,0,0,0,0,0
1569605851562.5,-31,-38,41,0,0,0,0,0
1569605851593.75,-34,-36,39,0,0,0,0,0
1569605851625,-30,-33,38,0,0,0,0,0
1569605851656.25,-36,-40,41,0,0,0,0,0
1569605851687.5,-29,-39,42,0,0,0,0,0
1569605851718.75,-28,-37,45,0,0,0,0,0
1569605851750,-30,-38,42,0,0,0,0,0
1569605851781.25,-30,-37,41,0,0,0,0,0
1569605851812.5,-28,-37,42,0,0,0,0,0
1569605851843.75,-32,-38,40,0,0,0,0,0
1569605851875,-30,-35,43,0,0,0,0,0
1569605851906.25,-28,-37,42,0,0,0,0,0
1569605851937.5,-32,-36,38,0,0,0,0,0
1569605851968.75,-29,-35,45,0,0,0,0,0
1569605852000,-29,-36,42,0,0,0,0,0
1569605852031.25,-32,-37,42,0,0,0,0,0
1569605852062.5,-29,-33,40,0,0,0,0,0
1569605852093.75,-31,-30,46,0,0,0,0,0
1569605852125,-31,-32,40,0,0,0,0,0
1569605852156.25,-35,-40,37,0,0,0,0,0
1569605852187.5,-26,-38,40,0,0,0,0,0
1569605852218.75,-50,-24,31,0,0,0,0,0
1569605852250,-91,-10,37,0,0,0,0,0
1569605852281.25,-81,-28,35,0,0,0,0,0
1569605852312.5,-90,-34,40,0,0,0,0,0
1569605852343.75,-41,-58,43,0,0,0,0,0
1569605852375,-15,-76,41,0,0,0,0,0
1569605852406.25,93,-105,43,0,0,0,0,0
1569605852437.5,108,-93,31,0,0,0,0,0
1569605852468.75,5,-26,8,0,0,0,0,0
1569605852500,-78,-9,4,0,0,0,0,0
1569605852531.25,-87,-30,25,0,0,0,0,0
1569605852562.5,-48,-22,36,0,0,0,0,0
1569605852593.75,-28,-24,47,0,0,0,0,0
1569605852625,-20,-33,41,0,0,0,0,0
1569605852656.25,-32,-33,30,0,0,0,0,0
1569605852687.5,-37,-31,28,0,0,0,0,0
1569605852718.75,-33,-23,31,0,0,0,0,0
1569605852750,-32,-6,39,0,0,0,0,0
1569605852781.25,-37,-4,45,0,0,0,0,0
1569605852812.5,-46,1,53,0,0,0,0,0
1569605852843.75,-47,3,57,0,0,0,0,0
1569605852875,-55,-6,45,0,0,0,0,0
1569605852906.25,-47,-8,46,0,0,0,0,0
1569605852937.5,-31,-9,48,0,0,0,0,0
1569605852968.75,-28,-9,43,0,0,0,0,0
1569605853000,-35,-4,26,0,0,0,0,0
1569605853031.25,-32,5,48,0,0,0,0,0
1569605853062.5,-22,11,61,0,0,0,0,0
1569605853093.75,-34,29,71,0,0,0,0,0
1569605853125,-32,32,72,0,0,0,0,0
1569605853156.25,-31,25,55,0,0,0,0,0
1569605853187.5,-28,27,51,0,0,0,0,0
1569605853218.75,18,10,59,0,0,0,0,0
1569605853250,53,-3,62,0,0,0,0,0
1569605853281.25,56,-14,65,0,0,0,0,0
1569605853312.5,44,-16,63,0,0,0,0,0
1569605853343.75,30,-18,54,0,0,0,0,0
1569605853375,26,-14,54,0,0,0,0,0
1569605853406.25,32,-12,57,0,0,0,0,0
1569605853437.5,18,-2,55,0,0,0,0,0
1569605853468.75,-8,10,68,0,0,0,0,0
1569605853500,-8,8,82,0,0,0,0,0
1569605853531.25,-13,9,73,0,0,0,0,0
1569605853562.5,-10,9,64,0,0,0,0,0
1569605853593.75,-10,5,61,0,0,0,0,0
1569605853625,-9,-1,53,0,0,0,0,0
1569605853656.25,-6,-1,53,0,0,0,0,0
1569605853687.5,-3,-2,66,0,0,0,0,0
1569605853718.75,-2,-3,65,0,0,0,0,0
1569605853750,-4,-1,75,0,0,0,0,0
1569605853781.25,-13,0,70,0,0,0,0,0
1569605853812.5,-16,2,72,0,0,0,0,0
1569605853843.75,-17,2,64,0,0,0,0,0
1569605853875,-21,3,63,0,0,0,0,0
1569605853906.25,-31,14,76,0,0,0,0,0
1569605853937.5,-14,14,74,0,0,0,0,0
1569605853968.75,38,-4,72,0,0,0,0,0
1569605854000,54,-22,39,0,0,0,0,0
1569605854031.25,53,-33,24,0,0,0,0,0
1569605854062.5,45,-39,17,0,0,0,0,0
1569605854093.75,4,-15,33,0,0,0,0,0
1569605854125,-56,4,47,0,0,0,0,0
1569605854156.25,27,30,127,0,0,0,0,0
1569605854187.5,26,-4,97,0,0,0,0,0
1569605854218.75,20,-2,68,0,0,0,0,0
1569605854250,37,-17,19,0,0,0,0,0
1569605854281.25,61,-32,11,0,0,0,0,0
1569605854312.5,69,-34,10,0,0,0,0,0
1569605854343.75,42,-18,22,0,0,0,0,0
1569605854375,-78,20,113,0,0,0,0,0
1569605854406.25,-69,27,127,0,0,0,0,0
1569605854437.5,37,3,117,0,0,0,0,0
1569605854468.75,26,-7,75,0,0,0,0,0
1569605854500,45,-11,13,0,0,0,0,0
1569605854531.25,51,-39,-17,0,0,0,0,0
1569605854562.5,65,-48,-19,0,0,0,0,0
1569605854593.75,13,-21,37,0,0,0,0,0
1569605854625,-34,-7,64,0,0,0,0,0
1569605854656.25,35,9,113,0,0,0,0,0
1569605854687.5,61,-9,123,0,0,0,0,0
1569605854718.75,9,-21,43,0,0,0,0,0
1569605854750,-3,-31,9,0,0,0,0,0
1569605854781.25,17,-44,15,0,0,0,0,0
1569605854812.5,11,-38,27,0,0,0,0,0
