Timestamp,ACC_X,ACC_Y,ACC_Z,Note,AGG,ED,SIB,Condition
1564759175000,-63,-6,-8,0,0,0,0,0
1564759175031.25,-66,-6,-10,0,0,0,0,0
1564759175062.5,-65,-4,-8,0,0,0,0,0
1564759175093.75,-66,-4,-9,0,0,0,0,0
1564759175125,-64,-4,-7,0,0,0,0,0
1564759175156.25,-64,-2,-2,0,0,0,0,0
1564759175187.5,-63,-1,3,0,0,0,0,0
1564759175218.75,-58,1,10,0,0,0,0,0
1564759175250,-61,1,10,0,0,0,0,0
1564759175281.25,-62,0,7,0,0,0,0,0
1564759175312.5,-62,0,4,0,0,0,0,0
1564759175343.75,-63,-1,4,0,0,0,0,0
1564759175375,-62,-2,6,0,0,0,0,0
1564759175406.25,-62,-3,6,0,0,0,0,0
1564759175437.5,-63,-2,6,0,0,0,0,0
1564759175468.75,-64,-2,6,0,0,0,0,0
1564759175500,-63,-2,6,0,0,0,0,0
1564759175531.25,-64,-1,4,0,0,0,0,0
1564759175562.5,-63,-2,2,0,0,0,0,0
1564759175593.75,-73,4,-5,0,0,0,0,0
1564759175625,-77,2,-4,0,0,0,0,0
1564759175656.25,-64,4,12,0,0,0,0,0
1564759175687.5,-59,4,20,0,0,0,0,0
1564759175718.75,-78,0,8,0,0,0,0,0
1564759175750,-65,2,15,0,0,0,0,0
1564759175781.25,-52,2,38,0,0,0,0,0
1564759175812.5,-50,-2,38,0,0,0,0,0
1564759175843.75,-34,-3,48,0,0,0,0,0
1564759175875,-25,-11,43,0,0,0,0,0
1564759175906.25,-21,-16,42,0,0,0,0,0
1564759175937.5,-25,-30,28,0,0,0,0,0
1564759175968.75,-17,-35,21,0,0,0,0,0
1564759176000,-6,-39,34,0,0,0,0,0
1564759176031.25,-4,-32,48,0,0,0,0,0
1564759176062.5,8,-10,59,0,0,0,0,0
1564759176093.75,20,2,62,0,0,0,0,0
1564759176125,7,14,62,0,0,0,0,0
1564759176156.25,-9,52,127,0,0,0,0,0
1564759176187.5,19,11,16,0,0,0,0,0
1564759176218.75,1,25,45,0,0,0,0,0
1564759176250,-35,35,51,0,0,0,0,0
1564759176281.25,-13,26,52,0,0,0,0,0
1564759176312.5,-33,13,52,0,0,0,0,0
1564759176343.75,-26,3,55,0,0,0,0,0
1564759176375,-23,0,58,0,0,0,0,0
1564759176406.25,-20,-1,59,0,0,0,0,0
1564759176437.5,-19,2,59,0,0,0,0,0
1564759176468.75,-16,5,59,0,0,0,0,0
1564759176500,-15,4,59,0,0,0,0,0
1564759176531.25,-12,4,61,0,0,0,0,0
1564759176562.5,-13,5,63,0,0,0,0,0
1564759176593.75,-16,4,60,0,0,0,0,0
1564759176625,-15,3,59,0,0,0,0,0
1564759176656.25,-12,5,62,0,0,0,0,0
1564759176687.5,-10,4,62,0,0,0,0,0
1564759176718.75,-15,3,60,0,0,0,0,0
1564759176750,-17,5,58,0,0,0,0,0
1564759176781.25,-14,5,61,0,0,0,0,0
1564759176812.5,-14,5,62,0,0,0,0,0
1564759176843.75,-17,3,60,0,0,0,0,0
1564759176875,-15,2,60,0,0,0,0,0
1564759176906.25,-12,4,61,0,0,0,0,0
1564759176937.5,-10,3,61,0,0,0,0,0
1564759176968.75,-8,4,63,0,0,0,0,0
1564759177000,-8,4,62,0,0,0,0,0
1564759177031.25,-12,4,61,0,0,0,0,0
1564759177062.5,-19,4,59,0,0,0,0,0
1564759177093.75,-17,4,59,0,0,0,0,0
1564759177125,-13,4,61,0,0,0,0,0
1564759177156.25,-12,4,61,0,0,0,0,0
1564759177187.5,-12,4,61,0,0,0,0,0
1564759177218.75,-13,4,61,0,0,0,0,0
1564759177250,-18,0,62,0,0,0,0,0
1564759177281.25,-22,3,58,0,0,0,0,0
1564759177312.5,-13,2,61,0,0,0,0,0
1564759177343.75,0,2,65,0,0,0,0,0
1564759177375,-12,4,58,0,0,0,0,0
1564759177406.25,-17,4,60,0,0,0,0,0
1564759177437.5,-16,4,60,0,0,0,0,0
1564759177468.75,-20,4,59,0,0,0,0,0
1564759177500,-18,4,60,0,0,0,0,0
1564759177531.25,-13,4,61,0,0,0,0,0
1564759177562.5,-11,4,62,0,0,0,0,0
1564759177593.75,-12,4,62,0,0,0,0,0
1564759177625,-15,4,60,0,0,0,0,0
1564759177656.25,-14,8,61,0,0,0,0,0
1564759177687.5,-22,2,57,0,0,0,0,0
1564759177718.75,-12,3,61,0,0,0,0,0
1564759177750,-5,3,64,0,0,0,0,0
1564759177781.25,-1,6,66,0,0,0,0,0
1564759177812.5,-6,6,65,0,0,0,0,0
1564759177843.75,-7,8,61,0,0,0,0,0
1564759177875,-13,9,61,0,0,0,0,0
1564759177906.25,-27,1,56,0,0,0,0,0
1564759177937.5,-25,0,57,0,0,0,0,0
1564759177968.75,-23,0,58,0,0,0,0,0
1564759178000,-21,3,59,0,0,0,0,0
1564759178031.25,-14,4,60,0,0,0,0,0
1564759178062.5,-13,4,62,0,0,0,0,0
1564759178093.75,-16,4,60,0,0,0,0,0
1564759178125,-18,4,60,0,0,0,0,0
1564759178156.25,-21,4,59,0,0,0,0,0
1564759178187.5,-21,4,58,0,0,0,0,0
1564759178218.75,-17,4,60,0,0,0,0,0
1564759178250,-16,4,61,0,0,0,0,0
1564759178281.25,-9,13,54,0,0,0,0,0
1564759178312.5,-26,-1,61,0,0,0,0,0
1564759178343.75,-22,3,59,0,0,0,0,0
1564759178375,-16,3,62,0,0,0,0,0
1564759178406.25,-16,6,60,0,0,0,0,0
1564759178437.5,-17,3,60,0,0,0,0,0
1564759178468.75,-19,4,60,0,0,0,0,0
1564759178500,-19,4,59,0,0,0,0,0
1564759178531.25,-15,11,54,0,0,0,0,0
1564759178562.5,-21,-1,62,0,0,0,0,0
1564759178593.75,-17,2,62,0,0,0,0,0
1564759178625,-14,3,57,0,0,0,0,0
1564759178656.25,-16,4,61,0,0,0,0,0
1564759178687.5,-19,3,59,0,0,0,0,0
1564759178718.75,-19,4,59,0,0,0,0,0
1564759178750,-16,4,60,0,0,0,0,0
1564759178781.25,-13,3,61,0,0,0,0,0
1564759178812.5,-17,5,62,0,0,0,0,0
1564759178843.75,-17,6,61,0,0,0,0,0
1564759178875,-21,21,59,0,0,0,0,0
1564759178906.25,-29,21,55,0,0,0,0,0
1564759178937.5,-25,6,52,0,0,0,0,0
1564759178968.75,-30,14,55,0,0,0,0,0
1564759179000,-29,8,55,0,0,0,0,0
1564759179031.25,-27,1,59,0,0,0,0,0
1564759179062.5,-31,-2,57,0,0,0,0,0
1564759179093.75,-41,-13,54,0,0,0,0,0
1564759179125,-42,-8,53,0,0,0,0,0
1564759179156.25,-42,2,47,0,0,0,0,0
1564759179187.5,-38,7,44,0,0,0,0,0
1564759179218.75,-45,10,42,0,0,0,0,0
1564759179250,-39,9,46,0,0,0,0,0
1564759179281.25,-30,8,57,0,0,0,0,0
1564759179312.5,-26,7,61,0,0,0,0,0
1564759179343.75,-24,5,60,0,0,0,0,0
1564759179375,-23,6,58,0,0,0,0,0
1564759179406.25,-23,3,59,0,0,0,0,0
1564759179437.5,-20,-1,56,0,0,0,0,0
1564759179468.75,-19,-3,53,0,0,0,0,0
1564759179500,-26,-6,53,0,0,0,0,0
1564759179531.25,-24,-3,51,0,0,0,0,0
1564759179562.5,-28,-9,43,0,0,0,0,0
1564759179593.75,-33,-7,39,0,0,0,0,0
1564759179625,-39,-2,39,0,0,0,0,0
1564759179656.25,-38,0,48,0,0,0,0,0
1564759179687.5,-32,9,79,0,0,0,0,0
1564759179718.75,-36,22,77,0,0,0,0,0
1564759179750,-32,5,53,0,0,0,0,0
1564759179781.25,-36,9,60,0,0,0,0,0
1564759179812.5,-34,6,50,0,0,0,0,0
1564759179843.75,-27,4,53,0,0,0,0,0
1564759179875,-27,3,50,0,0,0,0,0
1564759179906.25,-25,4,59,0,0,0,0,0
1564759179937.5,-12,19,77,0,0,0,0,0
1564759179968.75,-27,8,55,0,0,0,0,0
1564759180000,-48,4,43,0,0,0,0,0
1564759180031.25,-52,7,47,0,0,0,0,0
1564759180062.5,-41,7,46,0,0,0,0,0
1564759180093.75,-37,7,53,0,0,0,0,0
1564759180125,-30,6,54,0,0,0,0,0
1564759180156.25,-27,7,56,0,0,0,0,0
1564759180187.5,-28,6,56,0,0,0,0,0
1564759180218.75,-35,7,51,0,0,0,0,0
1564759180250,-45,9,48,0,0,0,0,0
1564759180281.25,-36,5,48,0,0,0,0,0
1564759180312.5,-38,7,52,0,0,0,0,0
1564759180343.75,-33,6,51,0,0,0,0,0
1564759180375,-33,6,53,0,0,0,0,0
1564759180406.25,-34,7,51,0,0,0,0,0
1564759180437.5,-36,7,51,0,0,0,0,0
1564759180468.75,-36,7,51,0,0,0,0,0
1564759180500,-35,7,51,0,0,0,0,0
1564759180531.25,-34,6,52,0,0,0,0,0
1564759180562.5,-35,7,51,0,0,0,0,0
1564759180593.75,-36,6,51,0,0,0,0,0
1564759180625,-36,7,50,0,0,0,0,0
1564759180656.25,-35,7,51,0,0,0,0,0
1564759180687.5,-34,6,51,0,0,0,0,0
1564759180718.75,-34,6,52,0,0,0,0,0
1564759180750,-34,6,52,0,0,0,0,0
1564759180781.25,-34,6,52,0,0,0,0,0
1564759180812.5,-34,6,52,0,0,0,0,0
1564759180843.75,-34,6,52,0,0,0,0,0
1564759180875,-35,7,51,0,0,0,0,0
1564759180906.25,-35,6,51,0,0,0,0,0
1564759180937.5,-35,6,51,0,0,0,0,0
1564759180968.75,-35,7,52,0,0,0,0,0
1564759181000,-34,6,52,0,0,0,0,0
1564759181031.25,-34,6,52,1,0,0,0,0
1564759181062.5,-35,6,52,1,0,0,0,0
1564759181093.75,-37,7,52,1,0,0,0,0
1564759181125,-39,6,49,1,0,0,0,0
1564759181156.25,-33,5,50,1,0,0,0,0
1564759181187.5,-26,6,55,1,0,0,0,0
1564759181218.75,-22,7,56,1,0,0,0,0
1564759181250,-27,6,56,1,0,0,0,0
1564759181281.25,-31,6,54,1,0,0,0,0
1564759181312.5,-38,5,50,1,0,0,0,0
1564759181343.75,-38,6,49,1,0,0,0,0
1564759181375,-36,6,52,1,0,0,0,0
1564759181406.25,-34,6,52,1,0,0,0,0
1564759181437.5,-30,6,53,1,0,0,0,0
1564759181468.75,-31,7,54,1,0,0,0,0
1564759181500,-33,6,53,1,0,0,0,0
1564759181531.25,-34,6,52,1,0,0,0,0
1564759181562.5,-34,6,52,1,0,0,0,0
1564759181593.75,-32,6,53,1,0,0,0,0
1564759181625,-33,6,53,1,0,0,0,0
1564759181656.25,-33,6,53,1,0,0,0,0
1564759181687.5,-33,6,52,1,0,0,0,0
1564759181718.75,-33,6,52,1,0,0,0,0
1564759181750,-33,6,53,1,0,0,0,0
1564759181781.25,-33,6,52,1,0,0,0,0
1564759181812.5,-32,6,53,1,0,0,0,0
1564759181843.75,-33,6,52,1,0,0,0,0
1564759181875,-33,6,53,1,0,0,0,0
1564759181906.25,-33,6,52,1,0,0,0,0
1564759181937.5,-33,6,53,1,0,0,0,0
1564759181968.75,-34,6,52,1,0,0,0,0
1564759182000,-33,6,53,1,0,0,0,0
1564759182031.25,-32,6,53,1,0,0,0,0
1564759182062.5,-33,6,52,1,0,0,0,0
1564759182093.75,-33,6,52,1,0,0,0,0
1564759182125,-33,6,52,1,0,0,0,0
1564759182156.25,-33,6,53,1,0,0,0,0
1564759182187.5,-33,6,52,1,0,0,0,0
1564759182218.75,-33,6,52,1,0,0,0,0
1564759182250,-34,6,52,1,0,0,0,0
1564759182281.25,-34,6,52,1,0,0,0,0
1564759182312.5,-33,6,52,1,0,0,0,0
1564759182343.75,-34,6,52,1,0,0,0,0
1564759182375,-33,6,52,1,0,0,0,0
1564759182406.25,-34,6,52,1,0,0,0,0
1564759182437.5,-34,7,52,1,0,0,0,0
1564759182468.75,-34,6,52,1,0,0,0,0
1564759182500,-34,6,52,1,0,0,0,0
1564759182531.25,-34,6,52,0,0,0,0,0
1564759182562.5,-33,5,52,0,0,0,0,0
1564759182593.75,-33,6,52,0,0,0,0,0
1564759182625,-34,6,52,0,0,0,0,0
1564759182656.25,-34,6,52,0,0,0,0,0
1564759182687.5,-34,6,52,0,0,0,0,0
1564759182718.75,-34,6,52,0,0,0,0,0
1564759182750,-34,6,52,0,0,0,0,0
1564759182781.25,-34,6,52,0,0,0,0,0
1564759182812.5,-34,6,52,0,0,0,0,0
1564759182843.75,-33,6,52,0,0,0,0,0
1564759182875,-33,6,52,0,0,0,0,0
1564759182906.25,-34,6,52,0,0,0,0,0
1564759182937.5,-34,6,52,0,0,0,0,0
1564759182968.75,-34,6,52,0,0,0,0,0
1564759183000,-34,6,52,0,0,0,0,0
1564759183031.25,-34,6,52,0,0,0,0,0
1564759183062.5,-34,6,52,0,0,0,0,0
1564759183093.75,-34,6,52,0,0,0,0,0
1564759183125,-34,6,52,0,0,0,0,0
1564759183156.25,-34,6,52,0,0,0,0,0
1564759183187.5,-34,7,52,0,0,0,0,0
1564759183218.75,-33,6,52,0,0,0,0,0
1564759183250,-33,7,52,0,0,0,0,0
1564759183281.25,-34,6,52,0,0,0,0,0
1564759183312.5,-33,6,52,0,0,0,0,0
1564759183343.75,-34,6,52,0,0,0,0,0
1564759183375,-33,6,52,0,0,0,0,0
1564759183406.25,-33,6,52,0,0,0,0,0
1564759183437.5,-34,6,52,0,0,0,0,0
1564759183468.75,-34,6,52,0,0,0,0,0
1564759183500,-34,6,52,0,0,0,0,0
1564759183531.25,-33,6,52,0,0,0,0,0
1564759183562.5,-35,6,52,0,0,0,0,0
1564759183593.75,-33,6,52,0,0,0,0,0
1564759183625,-34,6,52,0,0,0,0,0
1564759183656.25,-33,6,52,0,0,0,0,0
1564759183687.5,-34,6,52,0,0,0,0,0
1564759183718.75,-34,6,52,0,0,0,0,0
1564759183750,-34,6,52,0,0,0,0,0
1564759183781.25,-35,6,52,0,0,0,0,0
1564759183812.5,-34,5,51,0,0,0,0,0
1564759183843.75,-35,6,51,0,0,0,0,0
1564759183875,-34,6,52,0,0,0,0,0
1564759183906.25,-34,6,52,0,0,0,0,0
1564759183937.5,-34,6,52,0,0,0,0,0
1564759183968.75,-34,6,52,0,0,0,0,0
1564759184000,-34,6,52,0,0,0,0,0
1564759184031.25,-34,6,52,0,0,0,0,0
1564759184062.5,-35,6,52,0,0,0,0,0
1564759184093.75,-35,6,52,0,0,0,0,0
1564759184125,-35,6,52,0,0,0,0,0
1564759184156.25,-35,6,52,0,0,0,0,0
1564759184187.5,-34,6,52,0,0,0,0,0
1564759184218.75,-34,6,52,0,0,0,0,0
1564759184250,-34,6,52,0,0,0,0,0
1564759184281.25,-35,6,52,0,0,0,0,0
1564759184312.5,-36,6,51,0,0,0,0,0
1564759184343.75,-36,6,51,0,0,0,0,0
1564759184375,-36,6,51,0,0,0,0,0
1564759184406.25,-35,6,52,0,0,0,0,0
1564759184437.5,-35,6,52,0,0,0,0,0
1564759184468.75,-35,6,52,0,0,0,0,0
1564759184500,-34,6,52,0,0,0,0,0
1564759184531.25,-34,6,52,0,0,0,0,0
1564759184562.5,-34,6,51,0,0,0,0,0
1564759184593.75,-35,6,52,0,0,0,0,0
1564759184625,-35,6,52,0,0,0,0,0
1564759184656.25,-34,6,52,0,0,0,0,0
1564759184687.5,-35,6,52,0,0,0,0,0
1564759184718.75,-34,6,52,0,0,0,0,0
1564759184750,-35,6,51,0,0,0,0,0
1564759184781.25,-34,6,52,0,0,0,0,0
1564759184812.5,-33,6,52,0,0,0,0,0
1564759184843.75,-33,6,53,0,0,0,0,0
1564759184875,-34,6,52,0,0,0,0,0
1564759184906.25,-35,6,52,0,0,0,0,0
1564759184937.5,-35,6,51,0,0,0,0,0
1564759184968.75,-36,6,51,0,0,0,0,0
1564759185000,-35,6,52,0,0,0,0,0
1564759185031.25,-34,6,52,0,0,0,0,0
1564759185062.5,-35,6,51,0,0,0,0,0
1564759185093.75,-36,6,50,0,0,0,0,0
1564759185125,-37,5,50,0,0,0,0,0
1564759185156.25,-37,6,50,0,0,0,0,0
1564759185187.5,-36,6,50,0,0,0,0,0
1564759185218.75,-36,5,51,0,0,0,0,0
1564759185250,-36,6,51,0,0,0,0,0
1564759185281.25,-36,6,50,0,0,0,0,0
1564759185312.5,-36,6,50,0,0,0,0,0
1564759185343.75,-36,6,51,0,0,0,0,0
1564759185375,-36,5,51,0,0,0,0,0
1564759185406.25,-35,6,51,0,0,0,0,0
1564759185437.5,-35,6,51,0,0,0,0,0
1564759185468.75,-36,6,51,0,0,0,0,0
1564759185500,-35,6,51,0,0,0,0,0
1564759185531.25,-35,6,51,0,0,0,0,0
1564759185562.5,-35,6,51,0,0,0,0,0
1564759185593.75,-35,7,51,0,0,0,0,0
1564759185625,-35,6,51,0,0,0,0,0
1564759185656.25,-35,6,51,0,0,0,0,0
1564759185687.5,-35,6,52,0,0,0,0,0
1564759185718.75,-35,7,51,0,0,0,0,0
1564759185750,-35,7,51,0,0,0,0,0
1564759185781.25,-34,6,52,0,0,0,0,0
1564759185812.5,-34,6,52,0,0,0,0,0
1564759185843.75,-33,6,53,0,0,0,0,0
1564759185875,-34,6,52,0,0,0,0,0
1564759185906.25,-33,5,52,0,0,0,0,0
1564759185937.5,-34,6,52,0,0,0,0,0
1564759185968.75,-35,6,51,0,0,0,0,0
1564759186000,-36,6,51,0,0,0,0,0
1564759186031.25,-35,6,51,0,0,0,0,0
1564759186062.5,-35,6,51,0,0,0,0,0
1564759186093.75,-35,6,51,0,0,0,0,0
1564759186125,-36,6,51,0,0,0,0,0
1564759186156.25,-36,6,50,0,0,0,0,0
1564759186187.5,-36,6,51,0,0,0,0,0
1564759186218.75,-36,6,51,0,0,0,0,0
1564759186250,-36,6,50,0,0,0,0,0
1564759186281.25,-36,6,51,0,0,0,0,0
1564759186312.5,-36,6,51,0,0,0,0,0
1564759186343.75,-35,6,51,0,0,0,0,0
1564759186375,-35,6,52,0,0,0,0,0
1564759186406.25,-35,6,51,0,0,0,0,0
1564759186437.5,-34,6,52,0,0,0,0,0
1564759186468.75,-35,6,51,0,0,0,0,0
1564759186500,-35,6,51,0,0,0,0,0
1564759186531.25,-36,6,51,0,0,0,0,0
1564759186562.5,-35,6,51,0,0,0,0,0
1564759186593.75,-35,6,51,0,0,0,0,0
1564759186625,-35,6,51,0,0,0,0,0
1564759186656.25,-35,6,51,0,0,0,0,0
1564759186687.5,-35,6,52,0,0,0,0,0
1564759186718.75,-36,6,51,0,0,0,0,0
1564759186750,-36,6,51,0,0,0,0,0
1564759186781.25,-36,6,51,0,0,0,0,0
1564759186812.5,-36,6,51,0,0,0,0,0
1564759186843.75,-35,6,51,0,0,0,0,0
1564759186875,-35,6,51,0,0,0,0,0
1564759186906.25,-36,6,51,0,0,0,0,0
1564759186937.5,-36,6,51,0,0,0,0,0
1564759186968.75,-36,6,51,0,0,0,0,0
1564759187000,-35,6,51,0,0,0,0,0
1564759187031.25,-36,6,51,0,0,0,0,0
1564759187062.5,-36,6,51,0,0,0,0,0
1564759187093.75,-36,6,51,0,0,0,0,0
1564759187125,-35,6,51,0,0,0,0,0
1564759187156.25,-36,6,51,0,0,0,0,0
1564759187187.5,-35,6,51,0,0,0,0,0
1564759187218.75,-35,6,51,0,0,0,0,0
1564759187250,-36,6,51,0,0,0,0,0
1564759187281.25,-36,6,51,0,0,0,0,0
1564759187312.5,-36,6,51,0,0,0,0,0
1564759187343.75,-36,6,50,0,0,0,0,0
1564759187375,-35,6,51,0,0,0,0,0
1564759187406.25,-36,6,51,0,0,0,0,0
1564759187437.5,-36,6,51,0,0,0,0,0
1564759187468.75,-36,6,51,0,0,0,0,0
1564759187500,-36,6,51,0,0,0,0,0
1564759187531.25,-36,6,51,0,0,0,0,0
1564759187562.5,-36,6,51,0,0,0,0,0
1564759187593.75,-36,6,51,0,0,0,0,0
1564759187625,-36,6,51,0,0,0,0,0
1564759187656.25,-36,6,51,0,0,0,0,0
1564759187687.5,-36,6,51,0,0,0,0,0
1564759187718.75,-36,6,50,0,0,0,0,0
1564759187750,-32,5,51,0,0,0,0,0
1564759187781.25,-33,5,52,0,0,0,0,0
1564759187812.5,-36,6,50,0,0,0,0,0
1564759187843.75,-41,6,47,0,0,0,0,0
1564759187875,-43,6,45,0,0,0,0,0
1564759187906.25,-41,7,47,0,0,0,0,0
1564759187937.5,-42,8,51,0,0,0,0,0
1564759187968.75,-36,7,50,0,0,0,0,0
1564759188000,-32,8,54,0,0,0,0,0
1564759188031.25,-34,7,51,0,0,0,0,0
1564759188062.5,-40,7,49,0,0,0,0,0
1564759188093.75,-34,5,50,0,0,0,0,0
1564759188125,-30,5,53,0,0,0,0,0
1564759188156.25,-37,6,52,0,0,0,0,0
1564759188187.5,-32,5,49,0,0,0,0,0
1564759188218.75,-41,5,50,0,0,0,0,0
1564759188250,-45,5,46,0,0,0,0,0
1564759188281.25,-39,6,49,0,0,0,0,0
1564759188312.5,-31,6,52,0,0,0,0,0
1564759188343.75,-33,7,55,0,0,0,0,0
1564759188375,-28,5,55,0,0,0,0,0
1564759188406.25,-30,6,55,0,0,0,0,0
1564759188437.5,-27,3,55,0,0,0,0,0
1564759188468.75,-35,5,54,0,0,0,0,0
1564759188500,-32,7,54,0,0,0,0,0
1564759188531.25,-31,6,54,0,0,0,0,0
1564759188562.5,-30,5,55,0,0,0,0,0
1564759188593.75,-30,5,57,0,0,0,0,0
1564759188625,-29,5,59,0,0,0,0,0
1564759188656.25,-31,5,58,0,0,0,0,0
1564759188687.5,-19,3,58,0,0,0,0,0
1564759188718.75,-20,2,54,0,0,0,0,0
1564759188750,-22,1,55,0,0,0,0,0
1564759188781.25,-22,1,58,0,0,0,0,0
1564759188812.5,-21,1,59,0,0,0,0,0
1564759188843.75,-21,2,57,0,0,0,0,0
1564759188875,-24,3,59,0,0,0,0,0
1564759188906.25,-23,2,61,0,0,0,0,0
1564759188937.5,-25,4,58,0,0,0,0,0
1564759188968.75,-28,3,56,0,0,0,0,0
1564759189000,-25,0,60,0,0,0,0,0
1564759189031.25,-21,-2,56,0,0,0,0,0
1564759189062.5,-15,-2,56,0,0,0,0,0
1564759189093.75,-5,0,63,0,0,0,0,0
1564759189125,-1,1,66,0,0,0,0,0
1564759189156.25,-6,2,59,0,0,0,0,0
1564759189187.5,-17,1,61,0,0,0,0,0
1564759189218.75,-19,-1,62,0,0,0,0,0
1564759189250,-19,-1,58,0,0,0,0,0
1564759189281.25,-16,-2,57,0,0,0,0,0
1564759189312.5,-13,-3,58,0,0,0,0,0
1564759189343.75,-13,0,60,0,0,0,0,0
1564759189375,-17,0,58,0,0,0,0,0
1564759189406.25,-18,0,59,0,0,0,0,0
1564759189437.5,-18,1,61,0,0,0,0,0
1564759189468.75,-17,0,57,0,0,0,0,0
1564759189500,-19,0,55,0,0,0,0,0
1564759189531.25,-31,4,61,0,0,0,0,0
1564759189562.5,-30,3,59,0,0,0,0,0
1564759189593.75,-18,2,56,0,0,0,0,0
1564759189625,-20,3,67,0,0,0,0,0
1564759189656.25,-19,3,63,0,0,0,0,0
1564759189687.5,-21,2,55,0,0,0,0,0
1564759189718.75,-25,4,57,0,0,0,0,0
1564759189750,-23,3,58,0,0,0,0,0
1564759189781.25,-22,2,60,0,0,0,0,0
1564759189812.5,-20,1,58,0,0,0,0,0
1564759189843.75,-20,2,58,0,0,0,0,0
1564759189875,-18,2,58,0,0,0,0,0
1564759189906.25,-22,3,60,0,0,0,0,0
1564759189937.5,-20,2,58,0,0,0,0,0
1564759189968.75,-17,2,58,0,0,0,0,0
1564759190000,-16,3,57,0,0,0,0,0
1564759190031.25,-16,2,58,0,0,0,0,0
1564759190062.5,-15,0,65,0,0,0,0,0
1564759190093.75,-18,3,64,0,0,0,0,0
1564759190125,-29,5,59,0,0,0,0,0
1564759190156.25,-27,5,56,0,0,0,0,0
1564759190187.5,-33,7,52,0,0,0,0,0
1564759190218.75,-38,8,50,0,0,0,0,0
1564759190250,-43,7,49,0,0,0,0,0
1564759190281.25,-37,3,50,0,0,0,0,0
1564759190312.5,-34,2,52,0,0,0,0,0
1564759190343.75,-28,2,56,0,0,0,0,0
1564759190375,-27,2,56,0,0,0,0,0
1564759190406.25,-25,2,54,0,0,0,0,0
1564759190437.5,-25,5,58,0,0,0,0,0
1564759190468.75,-26,3,55,0,0,0,0,0
1564759190500,-32,3,52,0,0,0,0,0
1564759190531.25,-36,7,51,0,0,0,0,0
1564759190562.5,-38,8,50,0,0,0,0,0
1564759190593.75,-30,6,55,0,0,0,0,0
1564759190625,-27,5,56,0,0,0,0,0
1564759190656.25,-28,3,56,0,0,0,0,0
1564759190687.5,-28,4,55,0,0,0,0,0
1564759190718.75,-32,5,54,0,0,0,0,0
1564759190750,-32,5,54,0,0,0,0,0
1564759190781.25,-31,5,53,0,0,0,0,0
1564759190812.5,-31,4,54,0,0,0,0,0
1564759190843.75,-30,4,54,0,0,0,0,0
1564759190875,-31,4,54,0,0,0,0,0
1564759190906.25,-30,4,54,0,0,0,0,0
1564759190937.5,-30,5,54,0,0,0,0,0
1564759190968.75,-30,5,54,0,0,0,0,0
1564759191000,-31,5,54,0,0,0,0,0
1564759191031.25,-31,4,54,0,0,0,0,0
1564759191062.5,-31,5,54,0,0,0,0,0
1564759191093.75,-31,5,54,0,0,0,0,0
1564759191125,-31,5,54,0,0,0,0,0
1564759191156.25,-31,5,54,0,0,0,0,0
1564759191187.5,-32,5,53,0,0,0,0,0
1564759191218.75,-32,5,54,0,0,0,0,0
1564759191250,-32,6,54,0,0,0,0,0
1564759191281.25,-32,6,54,0,0,0,0,0
1564759191312.5,-31,5,54,0,0,0,0,0
1564759191343.75,-31,5,53,0,0,0,0,0
1564759191375,-31,5,54,0,0,0,0,0
1564759191406.25,-30,4,53,0,0,0,0,0
1564759191437.5,-31,5,54,0,0,0,0,0
1564759191468.75,-32,5,53,0,0,0,0,0
1564759191500,-31,5,54,0,0,0,0,0
1564759191531.25,-32,5,53,0,0,0,0,0
1564759191562.5,-32,5,53,0,0,0,0,0
1564759191593.75,-33,6,53,0,0,0,0,0
1564759191625,-31,5,54,0,0,0,0,0
1564759191656.25,-30,4,54,0,0,0,0,0
1564759191687.5,-30,4,54,0,0,0,0,0
1564759191718.75,-31,5,54,0,0,0,0,0
1564759191750,-33,6,53,0,0,0,0,0
1564759191781.25,-35,6,52,0,0,0,0,0
1564759191812.5,-35,6,52,0,0,0,0,0
1564759191843.75,-34,5,52,0,0,0,0,0
1564759191875,-33,5,52,0,0,0,0,0
1564759191906.25,-33,5,53,0,0,0,0,0
1564759191937.5,-33,5,52,0,0,0,0,0
1564759191968.75,-33,5,53,0,0,0,0,0
1564759192000,-32,5,53,0,0,0,0,0
1564759192031.25,-32,5,53,0,0,0,0,0
1564759192062.5,-33,5,53,0,0,0,0,0
1564759192093.75,-33,5,52,0,0,0,0,0
1564759192125,-34,5,52,0,0,0,0,0
1564759192156.25,-34,5,52,0,0,0,0,0
1564759192187.5,-33,6,53,0,0,0,0,0
1564759192218.75,-33,6,53,0,0,0,0,0
1564759192250,-33,5,52,0,0,0,0,0
1564759192281.25,-33,6,53,0,0,0,0,0
1564759192312.5,-34,5,52,0,0,0,0,0
1564759192343.75,-33,6,53,0,0,0,0,0
1564759192375,-32,6,53,0,0,0,0,0
1564759192406.25,-33,5,53,0,0,0,0,0
1564759192437.5,-33,5,52,0,0,0,0,0
1564759192468.75,-33,5,53,0,0,0,0,0
1564759192500,-32,6,53,0,0,0,0,0
1564759192531.25,-32,5,53,0,0,0,0,0
1564759192562.5,-33,5,53,0,0,0,0,0
1564759192593.75,-33,5,53,0,0,0,0,0
1564759192625,-33,5,52,0,0,0,0,0
1564759192656.25,-33,5,53,0,0,0,0,0
1564759192687.5,-33,5,53,0,0,0,0,0
1564759192718.75,-33,5,53,0,0,0,0,0
1564759192750,-32,5,53,0,0,0,0,0
1564759192781.25,-33,5,53,0,0,0,0,0
1564759192812.5,-33,5,53,0,0,0,0,0
1564759192843.75,-33,5,53,0,0,0,0,0
1564759192875,-33,5,53,0,0,0,0,0
1564759192906.25,-33,5,53,0,0,0,0,0
1564759192937.5,-33,5,52,0,0,0,0,0
1564759192968.75,-33,5,53,0,0,0,0,0
1564759193000,-32,5,53,0,0,0,0,0
1564759193031.25,-33,5,53,0,0,0,0,0
1564759193062.5,-33,5,52,0,0,0,0,0
1564759193093.75,-32,5,53,0,0,0,0,0
1564759193125,-33,5,52,0,0,0,0,0
1564759193156.25,-33,5,52,0,0,0,0,0
1564759193187.5,-33,5,53,0,0,0,0,0
1564759193218.75,-33,5,53,0,0,0,0,0
1564759193250,-33,5,53,0,0,0,0,0
1564759193281.25,-31,5,54,0,0,0,0,0
1564759193312.5,-29,5,54,0,0,0,0,0
1564759193343.75,-32,6,53,0,0,0,0,0
1564759193375,-34,6,52,0,0,0,0,0
1564759193406.25,-34,6,53,0,0,0,0,0
1564759193437.5,-32,6,53,0,0,0,0,0
1564759193468.75,-32,6,53,0,0,0,0,0
1564759193500,-33,7,52,0,0,0,0,0
1564759193531.25,-35,7,53,0,0,0,0,0
1564759193562.5,-23,3,55,0,0,0,0,0
1564759193593.75,-36,8,55,0,0,0,0,0
1564759193625,-35,5,50,0,0,0,0,0
1564759193656.25,-35,6,51,0,0,0,0,0
1564759193687.5,-32,6,52,0,0,0,0,0
1564759193718.75,-33,7,52,0,0,0,0,0
1564759193750,-35,6,51,0,0,0,0,0
1564759193781.25,-36,5,50,0,0,0,0,0
1564759193812.5,-36,6,50,0,0,0,0,0
1564759193843.75,-36,6,51,0,0,0,0,0
1564759193875,-35,6,51,0,0,0,0,0
1564759193906.25,-35,6,51,0,0,0,0,0
1564759193937.5,-35,7,52,0,0,0,0,0
1564759193968.75,-35,7,52,0,0,0,0,0
1564759194000,-35,7,51,0,0,0,0,0
1564759194031.25,-36,6,51,0,0,0,0,0
1564759194062.5,-36,6,50,0,0,0,0,0
1564759194093.75,-35,6,52,0,0,0,0,0
1564759194125,-35,6,51,0,0,0,0,0
1564759194156.25,-35,6,52,0,0,0,0,0
1564759194187.5,-34,6,52,0,0,0,0,0
1564759194218.75,-35,5,52,0,0,0,0,0
1564759194250,-34,5,52,0,0,0,0,0
1564759194281.25,-34,6,52,0,0,0,0,0
1564759194312.5,-34,6,52,0,0,0,0,0
1564759194343.75,-34,6,52,0,0,0,0,0
1564759194375,-35,6,52,0,0,0,0,0
1564759194406.25,-35,6,51,0,0,0,0,0
1564759194437.5,-35,6,51,0,0,0,0,0
1564759194468.75,-35,7,51,0,0,0,0,0
1564759194500,-36,7,51,0,0,0,0,0
1564759194531.25,-36,7,51,0,0,0,0,0
1564759194562.5,-36,6,50,0,0,0,0,0
1564759194593.75,-36,6,51,0,0,0,0,0
1564759194625,-36,7,51,0,0,0,0,0
1564759194656.25,-36,6,51,0,0,0,0,0
1564759194687.5,-36,6,51,0,0,0,0,0
1564759194718.75,-36,6,51,0,0,0,0,0
1564759194750,-36,6,51,0,0,0,0,0
1564759194781.25,-36,6,51,0,0,0,0,0
1564759194812.5,-35,6,51,0,0,0,0,0
1564759194843.75,-36,6,51,0,0,0,0,0
1564759194875,-37,6,50,0,0,0,0,0
1564759194906.25,-36,6,50,0,0,0,0,0
1564759194937.5,-35,6,51,0,0,0,0,0
1564759194968.75,-35,6,51,0,0,0,0,0
1564759195000,-35,6,51,0,0,0,0,0
1564759195031.25,-36,6,51,0,0,0,0,0
1564759195062.5,-37,6,50,0,0,0,0,0
1564759195093.75,-36,6,51,0,0,0,0,0
1564759195125,-36,6,50,0,0,0,0,0
1564759195156.25,-37,6,50,0,0,0,0,0
1564759195187.5,-37,6,50,0,0,0,0,0
1564759195218.75,-37,6,50,0,0,0,0,0
1564759195250,-36,6,50,0,0,0,0,0
1564759195281.25,-36,6,50,0,0,0,0,0
1564759195312.5,-37,6,50,0,0,0,0,0
1564759195343.75,-40,6,48,0,0,0,0,0
1564759195375,-38,6,47,0,0,0,0,0
1564759195406.25,-37,7,51,0,0,0,0,0
1564759195437.5,-47,9,51,0,0,0,0,0
1564759195468.75,-55,12,36,0,0,0,0,0
1564759195500,-55,2,34,0,0,0,0,0
1564759195531.25,-50,8,49,0,0,0,0,0
1564759195562.5,-37,10,52,0,0,0,0,0
1564759195593.75,-34,4,34,0,0,0,0,0
1564759195625,-44,5,28,0,0,0,0,0
1564759195656.25,-38,15,48,0,0,0,0,0
1564759195687.5,-38,10,52,0,0,0,0,0
1564759195718.75,-45,6,53,0,0,0,0,0
1564759195750,-39,5,53,0,0,0,0,0
1564759195781.25,-47,9,54,0,0,0,0,0
1564759195812.5,-36,12,57,0,0,0,0,0
1564759195843.75,-52,5,34,0,0,0,0,0
1564759195875,-61,8,32,0,0,0,0,0
1564759195906.25,-57,6,24,0,0,0,0,0
1564759195937.5,-53,4,21,0,0,0,0,0
1564759195968.75,-65,4,16,0,0,0,0,0
1564759196000,-53,1,11,0,0,0,0,0
1564759196031.25,-55,-3,-8,0,0,0,0,0
1564759196062.5,-69,2,3,0,0,0,0,0
1564759196093.75,-62,1,12,0,0,0,0,0
1564759196125,-52,7,24,0,0,0,0,0
1564759196156.25,-55,4,22,0,0,0,0,0
1564759196187.5,-61,2,9,0,0,0,0,0
1564759196218.75,-67,1,3,0,0,0,0,0
1564759196250,-62,3,7,0,0,0,0,0
1564759196281.25,-60,3,5,0,0,0,0,0
1564759196312.5,-63,2,4,0,0,0,0,0
1564759196343.75,-64,3,8,0,0,0,0,0
1564759196375,-58,2,-2,0,0,0,0,0
1564759196406.25,-60,1,-6,0,0,0,0,0
1564759196437.5,-70,1,-6,0,0,0,0,0
1564759196468.75,-69,3,-1,0,0,0,0,0
1564759196500,-55,-1,-7,0,0,0,0,0
1564759196531.25,-64,-2,-9,0,0,0,0,0
1564759196562.5,-66,0,-3,0,0,0,0,0
1564759196593.75,-60,1,-3,0,0,0,0,0
1564759196625,-60,-1,-8,0,0,0,0,0
1564759196656.25,-67,-2,-9,0,0,0,0,0
1564759196687.5,-67,0,-8,0,0,0,0,0
1564759196718.75,-66,-1,-12,0,0,0,0,0
1564759196750,-60,-2,-6,0,0,0,0,0
1564759196781.25,-60,3,9,0,0,0,0,0
1564759196812.5,-64,4,9,0,0,0,0,0
1564759196843.75,-58,6,17,0,0,0,0,0
1564759196875,-59,4,15,0,0,0,0,0
1564759196906.25,-61,6,14,0,0,0,0,0
1564759196937.5,-59,5,11,0,0,0,0,0
1564759196968.75,-64,3,2,0,0,0,0,0
1564759197000,-66,4,5,0,0,0,0,0
1564759197031.25,-63,3,5,0,0,0,0,0
1564759197062.5,-60,2,4,0,0,0,0,0
1564759197093.75,-65,-4,-6,0,0,0,0,0
1564759197125,-67,-4,-6,0,0,0,0,0
1564759197156.25,-61,-3,-11,0,0,0,0,0
1564759197187.5,-68,-1,-7,0,0,0,0,0
1564759197218.75,-74,1,1,0,0,0,0,0
1564759197250,-54,10,25,0,0,0,0,0
1564759197281.25,-54,4,9,0,0,0,0,0
1564759197312.5,-60,-9,-9,0,0,0,0,0
1564759197343.75,-62,-4,-8,0,0,0,0,0
1564759197375,-65,2,11,0,0,0,0,0
1564759197406.25,-61,6,17,0,0,0,0,0
1564759197437.5,-55,10,28,0,0,0,0,0
1564759197468.75,-53,10,30,0,0,0,0,0
1564759197500,-73,9,19,0,0,0,0,0
1564759197531.25,-71,8,19,0,0,0,0,0
1564759197562.5,-55,3,11,0,0,0,0,0
1564759197593.75,-56,1,8,0,0,0,0,0
1564759197625,-60,0,8,0,0,0,0,0
1564759197656.25,-60,-1,7,0,0,0,0,0
1564759197687.5,-64,5,10,0,0,0,0,0
1564759197718.75,-56,8,19,0,0,0,0,0
1564759197750,-42,-2,33,0,0,0,0,0
1564759197781.25,-64,1,28,0,0,0,0,0
1564759197812.5,-70,4,14,0,0,0,0,0
1564759197843.75,-57,5,27,0,0,0,0,0
1564759197875,-49,8,38,0,0,0,0,0
1564759197906.25,-38,9,48,0,0,0,0,0
1564759197937.5,-41,6,49,0,0,0,0,0
1564759197968.75,-37,4,49,0,0,0,0,0
1564759198000,-28,3,49,0,0,0,0,0
1564759198031.25,-32,1,47,0,0,0,0,0
1564759198062.5,-45,6,44,0,0,0,0,0
1564759198093.75,-68,6,30,0,0,0,0,0
1564759198125,-54,8,32,0,0,0,0,0
1564759198156.25,-43,7,44,0,0,0,0,0
1564759198187.5,-44,9,45,0,0,0,0,0
1564759198218.75,-45,5,43,0,0,0,0,0
1564759198250,-43,5,45,0,0,0,0,0
1564759198281.25,-36,3,48,0,0,0,0,0
1564759198312.5,-35,4,49,0,0,0,0,0
1564759198343.75,-38,6,48,0,0,0,0,0
1564759198375,-41,7,47,0,0,0,0,0
1564759198406.25,-45,7,44,0,0,0,0,0
1564759198437.5,-48,6,40,0,0,0,0,0
1564759198468.75,-48,6,40,0,0,0,0,0
1564759198500,-48,7,41,0,0,0,0,0
1564759198531.25,-49,6,40,0,0,0,0,0
1564759198562.5,-48,5,39,0,0,0,0,0
1564759198593.75,-47,6,40,0,0,0,0,0
1564759198625,-46,6,42,0,0,0,0,0
1564759198656.25,-47,7,41,0,0,0,0,0
1564759198687.5,-42,6,44,0,0,0,0,0
1564759198718.75,-45,5,42,0,0,0,0,0
1564759198750,-46,5,41,0,0,0,0,0
1564759198781.25,-45,6,43,0,0,0,0,0
1564759198812.5,-44,7,43,0,0,0,0,0
1564759198843.75,-44,7,43,0,0,0,0,0
1564759198875,-45,6,41,0,0,0,0,0
1564759198906.25,-46,6,43,0,0,0,0,0
1564759198937.5,-46,6,42,0,0,0,0,0
1564759198968.75,-45,6,42,0,0,0,0,0
1564759199000,-45,5,42,0,0,0,0,0
1564759199031.25,-45,5,42,0,0,0,0,0
1564759199062.5,-47,6,41,0,0,0,0,0
1564759199093.75,-44,5,42,0,0,0,0,0
1564759199125,-45,5,42,0,0,0,0,0
1564759199156.25,-45,6,41,0,0,0,0,0
1564759199187.5,-44,4,39,0,0,0,0,0
1564759199218.75,-47,3,40,0,0,0,0,0
1564759199250,-52,9,50,0,0,0,0,0
1564759199281.25,-50,9,39,0,0,0,0,0
1564759199312.5,-45,12,41,0,0,0,0,0
1564759199343.75,-44,8,39,0,0,0,0,0
1564759199375,-51,8,34,0,0,0,0,0
1564759199406.25,-53,9,39,0,0,0,0,0
1564759199437.5,-49,10,44,0,0,0,0,0
1564759199468.75,-43,8,45,0,0,0,0,0
1564759199500,-43,8,44,0,0,0,0,0
1564759199531.25,-43,6,46,0,0,0,0,0
1564759199562.5,-41,7,49,0,0,0,0,0
1564759199593.75,-48,5,41,0,0,0,0,0
1564759199625,-44,5,43,0,0,0,0,0
1564759199656.25,-38,2,44,0,0,0,0,0
1564759199687.5,-42,0,42,0,0,0,0,0
1564759199718.75,-50,3,42,0,0,0,0,0
1564759199750,-55,6,38,0,0,0,0,0
1564759199781.25,-41,7,44,0,0,0,0,0
1564759199812.5,-38,5,47,0,0,0,0,0
1564759199843.75,-48,8,44,0,0,0,0,0
1564759199875,-48,8,44,0,0,0,0,0
1564759199906.25,-37,5,46,0,0,0,0,0
1564759199937.5,-48,5,39,0,0,0,0,0
1564759199968.75,-46,8,42,0,0,0,0,0
1564759200000,-46,6,44,0,0,0,0,0
1564759200031.25,-44,5,42,0,0,0,0,0
1564759200062.5,-45,4,39,0,0,0,0,0
1564759200093.75,-45,4,39,0,0,0,0,0
1564759200125,-47,4,38,0,0,0,0,0
1564759200156.25,-44,4,38,0,0,0,0,0
1564759200187.5,-46,3,38,0,0,0,0,0
1564759200218.75,-50,2,37,0,0,0,0,0
1564759200250,-52,3,38,0,0,0,0,0
1564759200281.25,-50,6,40,0,0,0,0,0
1564759200312.5,-48,8,40,0,0,0,0,0
1564759200343.75,-46,7,42,0,0,0,0,0
1564759200375,-48,6,41,0,0,0,0,0
1564759200406.25,-49,4,38,0,0,0,0,0
1564759200437.5,-48,5,38,0,0,0,0,0
1564759200468.75,-49,5,39,0,0,0,0,0
1564759200500,-48,5,40,0,0,0,0,0
1564759200531.25,-48,6,41,0,0,0,0,0
1564759200562.5,-48,5,38,0,0,0,0,0
1564759200593.75,-46,5,39,0,0,0,0,0
1564759200625,-51,5,39,0,0,0,0,0
1564759200656.25,-49,6,40,0,0,0,0,0
1564759200687.5,-48,5,39,0,0,0,0,0
1564759200718.75,-47,4,38,0,0,0,0,0
1564759200750,-48,4,39,0,0,0,0,0
1564759200781.25,-49,5,40,0,0,0,0,0
1564759200812.5,-47,5,39,0,0,0,0,0
1564759200843.75,-48,5,40,0,0,0,0,0
1564759200875,-48,5,40,0,0,0,0,0
1564759200906.25,-49,5,40,0,0,0,0,0
1564759200937.5,-47,4,38,0,0,0,0,0
1564759200968.75,-48,4,39,0,0,0,0,0
1564759201000,-47,5,41,0,0,0,0,0
1564759201031.25,-47,5,40,0,0,0,0,0
1564759201062.5,-48,5,39,0,0,0,0,0
1564759201093.75,-48,4,39,0,0,0,0,0
1564759201125,-48,4,39,0,0,0,0,0
1564759201156.25,-46,4,38,0,0,0,0,0
1564759201187.5,-49,6,40,0,0,0,0,0
1564759201218.75,-52,7,40,0,0,0,0,0
1564759201250,-50,7,37,0,0,0,0,0
1564759201281.25,-50,6,37,0,0,0,0,0
1564759201312.5,-50,4,36,0,0,0,0,0
1564759201343.75,-49,4,38,0,0,0,0,0
1564759201375,-48,5,39,0,0,0,0,0
1564759201406.25,-47,5,38,0,0,0,0,0
1564759201437.5,-49,5,38,0,0,0,0,0
1564759201468.75,-48,4,37,0,0,0,0,0
1564759201500,-47,4,40,0,0,0,0,0
1564759201531.25,-47,5,39,0,0,0,0,0
1564759201562.5,-47,5,38,0,0,0,0,0
1564759201593.75,-51,7,40,0,0,0,0,0
1564759201625,-52,6,38,0,0,0,0,0
1564759201656.25,-48,8,38,0,0,0,0,0
1564759201687.5,-42,9,45,0,0,0,0,0
1564759201718.75,-54,5,39,0,0,0,0,0
1564759201750,-46,4,41,0,0,0,0,0
1564759201781.25,-48,2,39,0,0,0,0,0
1564759201812.5,-52,3,38,0,0,0,0,0
1564759201843.75,-47,7,41,0,0,0,0,0
1564759201875,-51,8,39,0,0,0,0,0
1564759201906.25,-42,7,43,0,0,0,0,0
1564759201937.5,-41,7,43,0,0,0,0,0
1564759201968.75,-49,5,39,0,0,0,0,0
1564759202000,-49,5,38,0,0,0,0,0
1564759202031.25,-48,5,38,0,0,0,0,0
1564759202062.5,-48,5,38,0,0,0,0,0
1564759202093.75,-45,6,42,0,0,0,0,0
1564759202125,-43,5,43,0,0,0,0,0
1564759202156.25,-42,6,44,0,0,0,0,0
1564759202187.5,-45,4,42,0,0,0,0,0
1564759202218.75,-45,4,42,0,0,0,0,0
1564759202250,-52,8,40,0,0,0,0,0
1564759202281.25,-55,6,37,0,0,0,0,0
1564759202312.5,-45,9,41,0,0,0,0,0
1564759202343.75,-45,9,41,0,0,0,0,0
1564759202375,-44,8,44,0,0,0,0,0
1564759202406.25,-41,7,46,0,0,0,0,0
1564759202437.5,-41,8,46,0,0,0,0,0
1564759202468.75,-40,7,46,0,0,0,0,0
1564759202500,-45,7,42,0,0,0,0,0
1564759202531.25,-46,7,41,0,0,0,0,0
1564759202562.5,-50,7,39,0,0,0,0,0
1564759202593.75,-50,7,38,0,0,0,0,0
1564759202625,-47,7,41,0,0,0,0,0
1564759202656.25,-46,4,41,0,0,0,0,0
1564759202687.5,-44,8,42,0,0,0,0,0
1564759202718.75,-46,8,42,0,0,0,0,0
1564759202750,-43,4,43,0,0,0,0,0
1564759202781.25,-47,5,40,0,0,0,0,0
1564759202812.5,-49,6,39,0,0,0,0,0
1564759202843.75,-47,6,39,0,0,0,0,0
1564759202875,-49,6,38,0,0,0,0,0
1564759202906.25,-50,6,37,0,0,0,0,0
1564759202937.5,-51,5,36,0,0,0,0,0
1564759202968.75,-51,7,35,0,0,0,0,0
1564759203000,-52,7,33,0,0,0,0,0
1564759203031.25,-54,6,33,0,0,0,0,0
1564759203062.5,-52,6,34,0,0,0,0,0
1564759203093.75,-51,7,36,0,0,0,0,0
1564759203125,-50,7,37,0,0,0,0,0
1564759203156.25,-48,7,38,0,0,0,0,0
1564759203187.5,-48,8,38,0,0,0,0,0
1564759203218.75,-49,7,38,0,0,0,0,0
1564759203250,-49,7,38,0,0,0,0,0
1564759203281.25,-48,7,38,0,0,0,0,0
1564759203312.5,-49,7,38,0,0,0,0,0
1564759203343.75,-49,7,38,0,0,0,0,0
1564759203375,-49,7,38,0,0,0,0,0
1564759203406.25,-48,7,39,0,0,0,0,0
1564759203437.5,-48,7,39,0,0,0,0,0
1564759203468.75,-48,8,39,0,0,0,0,0
1564759203500,-48,7,39,0,0,0,0,0
1564759203531.25,-48,6,40,0,0,0,0,0
1564759203562.5,-47,7,40,0,0,0,0,0
1564759203593.75,-48,7,41,0,0,0,0,0
1564759203625,-48,7,40,0,0,0,0,0
1564759203656.25,-47,7,40,0,0,0,0,0
1564759203687.5,-46,6,41,0,0,0,0,0
1564759203718.75,-45,6,42,0,0,0,0,0
1564759203750,-47,6,41,0,0,0,0,0
1564759203781.25,-48,8,41,0,0,0,0,0
1564759203812.5,-46,14,53,0,0,0,0,0
1564759203843.75,-52,15,61,0,0,0,0,0
1564759203875,-35,4,73,0,0,0,0,0
1564759203906.25,-37,4,78,0,0,0,0,0
1564759203937.5,-52,-12,57,0,0,0,0,0
1564759203968.75,-51,-18,55,0,0,0,0,0
1564759204000,-46,-23,59,0,0,0,0,0
1564759204031.25,-35,-23,53,0,0,0,0,0
1564759204062.5,-28,-25,51,0,0,0,0,0
1564759204093.75,-15,-35,43,0,0,0,0,0
1564759204125,-4,-31,44,0,0,0,0,0
1564759204156.25,-4,-23,38,0,0,0,0,0
1564759204187.5,-3,-23,37,0,0,0,0,0
1564759204218.75,14,-25,40,0,0,0,0,0
1564759204250,14,-22,43,0,0,0,0,0
1564759204281.25,18,-24,51,0,0,0,0,0
1564759204312.5,17,-22,52,0,0,0,0,0
1564759204343.75,9,-27,40,0,0,0,0,0
1564759204375,-7,-50,32,0,0,0,0,0
1564759204406.25,-58,-26,15,0,0,0,0,0
1564759204437.5,-51,-41,20,0,0,0,0,0
1564759204468.75,-30,-41,36,0,0,0,0,0
1564759204500,-34,-41,39,0,0,0,0,0
1564759204531.25,-43,-42,39,0,0,0,0,0
1564759204562.5,-38,-41,40,0,0,0,0,0
1564759204593.75,-24,-41,39,0,0,0,0,0
1564759204625,-20,-43,38,0,0,0,0,0
1564759204656.25,-17,-43,36,0,0,0,0,0
1564759204687.5,-1,-45,41,0,0,0,0,0
1564759204718.75,3,-43,46,0,0,0,0,0
1564759204750,-3,-41,50,0,0,0,0,0
1564759204781.25,-10,-41,49,0,0,0,0,0
1564759204812.5,-20,-38,45,0,0,0,0,0
1564759204843.75,-16,-38,46,0,0,0,0,0
1564759204875,-12,-42,46,0,0,0,0,0
1564759204906.25,-10,-39,49,0,0,0,0,0
1564759204937.5,-13,-38,49,0,0,0,0,0
1564759204968.75,-6,-39,51,0,0,0,0,0
1564759205000,-5,-40,48,0,0,0,0,0
1564759205031.25,-11,-39,48,0,0,0,0,0
1564759205062.5,-10,-38,50,0,0,0,0,0
1564759205093.75,-5,-38,52,0,0,0,0,0
1564759205125,20,-40,59,0,0,0,0,0
1564759205156.25,30,-38,65,0,0,0,0,0
1564759205187.5,28,-28,84,0,0,0,0,0
1564759205218.75,0,-14,53,0,0,0,0,0
1564759205250,-87,-8,41,0,0,0,0,0
1564759205281.25,-41,-12,17,0,0,0,0,0
1564759205312.5,-82,-45,-58,0,0,0,0,0
1564759205343.75,-83,-60,-59,0,0,0,0,0
1564759205375,-28,-52,12,0,0,0,0,0
1564759205406.25,0,-47,65,0,0,0,0,0
1564759205437.5,-4,-40,64,0,0,0,0,0
1564759205468.75,-36,-40,57,0,0,0,0,0
1564759205500,-47,-41,41,0,0,0,0,0
1564759205531.25,-45,-45,14,0,0,0,0,0
1564759205562.5,-40,-49,-1,0,0,0,0,0
1564759205593.75,-27,-59,-26,0,0,0,0,0
1564759205625,-18,-62,-31,0,0,0,0,0
1564759205656.25,-2,-62,-22,0,0,0,0,0
1564759205687.5,0,-61,-10,0,0,0,0,0
1564759205718.75,-6,-54,7,0,0,0,0,0
1564759205750,-6,-48,16,0,0,0,0,0
1564759205781.25,1,-38,30,0,0,0,0,0
1564759205812.5,-2,-34,35,0,0,0,0,0
1564759205843.75,-23,-22,51,0,0,0,0,0
1564759205875,-18,-22,54,0,0,0,0,0
1564759205906.25,-27,-18,51,0,0,0,0,0
1564759205937.5,-40,-22,47,0,0,0,0,0
1564759205968.75,-39,-24,40,0,0,0,0,0
1564759206000,-49,-20,30,0,0,0,0,0
1564759206031.25,-61,-17,26,0,0,0,0,0
1564759206062.5,-63,-17,11,0,0,0,0,0
1564759206093.75,-68,-18,-4,0,0,0,0,0
1564759206125,-80,-19,-20,0,0,0,0,0
1564759206156.25,-80,-17,-23,0,0,0,0,0
1564759206187.5,-73,-12,-28,0,0,0,0,0
1564759206218.75,-66,-10,-28,0,0,0,0,0
1564759206250,-60,-8,-27,0,0,0,0,0
1564759206281.25,-63,-9,-29,0,0,0,0,0
1564759206312.5,-58,-8,-25,0,0,0,0,0
1564759206343.75,-59,-9,-25,0,0,0,0,0
1564759206375,-62,-10,-28,0,0,0,0,0
1564759206406.25,-58,-8,-28,0,0,0,0,0
1564759206437.5,-56,-5,-21,0,0,0,0,0
1564759206468.75,-58,-5,-18,0,0,0,0,0
1564759206500,-67,-2,-25,0,0,0,0,0
1564759206531.25,-64,1,-23,0,0,0,0,0
1564759206562.5,-55,-2,-20,0,0,0,0,0
1564759206593.75,-61,-3,-24,0,0,0,0,0
1564759206625,-64,-4,-27,0,0,0,0,0
1564759206656.25,-60,-4,-22,0,0,0,0,0
1564759206687.5,-57,-2,-20,0,0,0,0,0
1564759206718.75,-64,-2,-21,0,0,0,0,0
1564759206750,-62,-3,-22,0,0,0,0,0
1564759206781.25,-58,-2,-20,0,0,0,0,0
1564759206812.5,-60,-2,-20,0,0,0,0,0
1564759206843.75,-62,-4,-23,0,0,0,0,0
1564759206875,-59,-4,-22,0,0,0,0,0
1564759206906.25,-60,-4,-22,0,0,0,0,0
1564759206937.5,-60,-4,-21,0,0,0,0,0
1564759206968.75,-59,-3,-21,0,0,0,0,0
1564759207000,-59,-3,-21,0,0,0,0,0
1564759207031.25,-61,-3,-22,0,0,0,0,0
1564759207062.5,-60,-4,-22,0,0,0,0,0
1564759207093.75,-60,-3,-21,0,0,0,0,0
1564759207125,-62,-3,-22,0,0,0,0,0
1564759207156.25,-59,-3,-22,0,0,0,0,0
1564759207187.5,-59,-4,-22,0,0,0,0,0
1564759207218.75,-62,-4,-21,0,0,0,0,0
1564759207250,-51,-5,-24,0,0,0,0,0
1564759207281.25,-53,-7,-29,0,0,0,0,0
1564759207312.5,-60,-6,-33,0,0,0,0,0
1564759207343.75,-59,-5,-31,0,0,0,0,0
1564759207375,-58,-4,-30,0,0,0,0,0
1564759207406.25,-61,-5,-31,0,0,0,0,0
1564759207437.5,-57,-4,-30,0,0,0,0,0
1564759207468.75,-55,-3,-29,0,0,0,0,0
1564759207500,-57,-6,-30,0,0,0,0,0
1564759207531.25,-56,-6,-29,0,0,0,0,0
1564759207562.5,-54,-8,-31,0,0,0,0,0
1564759207593.75,-55,-9,-30,0,0,0,0,0
1564759207625,-58,-8,-29,0,0,0,0,0
1564759207656.25,-57,-7,-27,0,0,0,0,0
1564759207687.5,-59,-7,-26,0,0,0,0,0
1564759207718.75,-57,-6,-24,0,0,0,0,0
1564759207750,-58,-7,-27,0,0,0,0,0
1564759207781.25,-59,-8,-26,0,0,0,0,0
1564759207812.5,-58,-7,-25,0,0,0,0,0
1564759207843.75,-58,-5,-23,0,0,0,0,0
1564759207875,-60,-5,-24,0,0,0,0,0
1564759207906.25,-64,-6,-28,0,0,0,0,0
1564759207937.5,-60,-8,-27,0,0,0,0,0
1564759207968.75,-59,-7,-28,0,0,0,0,0
1564759208000,-62,-7,-29,0,0,0,0,0
1564759208031.25,-58,-7,-25,0,0,0,0,0
1564759208062.5,-56,-7,-27,0,0,0,0,0
1564759208093.75,-57,-10,-29,0,0,0,0,0
1564759208125,-58,-11,-27,0,0,0,0,0
1564759208156.25,-59,-12,-25,0,0,0,0,0
1564759208187.5,-63,-12,-26,0,0,0,0,0
1564759208218.75,-80,-7,-17,0,0,0,0,0
1564759208250,-85,-6,-14,0,0,0,0,0
1564759208281.25,-71,-3,-5,0,0,0,0,0
1564759208312.5,-72,-6,-2,0,0,0,0,0
1564759208343.75,-64,-12,-4,0,0,0,0,0
1564759208375,-59,-16,-9,0,0,0,0,0
1564759208406.25,-52,-24,-9,0,0,0,0,0
1564759208437.5,-49,-30,-7,0,0,0,0,0
1564759208468.75,-52,-31,-6,0,0,0,0,0
1564759208500,-47,-36,4,0,0,0,0,0
1564759208531.25,-44,-40,11,0,0,0,0,0
1564759208562.5,-37,-46,24,0,0,0,0,0
1564759208593.75,-36,-47,28,0,0,0,0,0
1564759208625,-35,-42,37,0,0,0,0,0
1564759208656.25,-29,-41,38,0,0,0,0,0
1564759208687.5,-23,-37,30,0,0,0,0,0
1564759208718.75,-19,-41,38,0,0,0,0,0
1564759208750,-15,-26,47,0,0,0,0,0
1564759208781.25,-6,-24,50,0,0,0,0,0
1564759208812.5,4,-20,53,0,0,0,0,0
1564759208843.75,11,-23,61,0,0,0,0,0
1564759208875,-16,-23,56,0,0,0,0,0
1564759208906.25,-2,-26,63,0,0,0,0,0
1564759208937.5,-7,-23,50,0,0,0,0,0
1564759208968.75,-12,-25,44,0,0,0,0,0
1564759209000,-12,-25,47,0,0,0,0,0
1564759209031.25,-18,-35,57,0,0,0,0,0
1564759209062.5,-16,-20,61,0,0,0,0,0
1564759209093.75,-9,-31,58,0,0,0,0,0
1564759209125,-10,-29,64,0,0,0,0,0
1564759209156.25,-17,-33,54,0,0,0,0,0
1564759209187.5,-21,-33,49,0,0,0,0,0
1564759209218.75,-20,-35,44,0,0,0,0,0
1564759209250,-20,-33,48,0,0,0,0,0
1564759209281.25,13,-34,60,0,0,0,0,0
1564759209312.5,32,-33,74,0,0,0,0,0
1564759209343.75,21,-32,72,0,0,0,0,0
1564759209375,6,-20,43,0,0,0,0,0
1564759209406.25,-84,0,82,0,0,0,0,0
1564759209437.5,-78,10,52,0,0,0,0,0
1564759209468.75,-83,-15,-43,0,0,0,0,0
1564759209500,-91,-51,-85,0,0,0,0,0
1564759209531.25,-59,-64,-42,0,0,0,0,0
1564759209562.5,-38,-60,2,0,0,0,0,0
1564759209593.75,-24,-44,51,0,0,0,0,0
1564759209625,-10,-41,54,0,0,0,0,0
1564759209656.25,-10,-47,27,0,0,0,0,0
1564759209687.5,-14,-51,-9,0,0,0,0,0
1564759209718.75,-24,-58,-15,0,0,0,0,0
1564759209750,-18,-60,-20,0,0,0,0,0
1564759209781.25,-28,-59,-17,0,0,0,0,0
1564759209812.5,-31,-59,3,0,0,0,0,0
1564759209843.75,-24,-55,8,0,0,0,0,0
1564759209875,-12,-50,16,0,0,0,0,0
1564759209906.25,-19,-49,18,0,0,0,0,0
1564759209937.5,-25,-43,27,0,0,0,0,0
1564759209968.75,-23,-41,33,0,0,0,0,0
1564759210000,-35,-34,34,0,0,0,0,0
1564759210031.25,-49,-33,33,0,0,0,0,0
1564759210062.5,-61,-29,33,0,0,0,0,0
1564759210093.75,-67,-29,34,0,0,0,0,0
1564759210125,-65,-30,31,0,0,0,0,0
1564759210156.25,-58,-30,30,0,0,0,0,0
1564759210187.5,-48,-32,32,0,0,0,0,0
1564759210218.75,-49,-36,26,0,0,0,0,0
1564759210250,-40,-34,30,0,0,0,0,0
1564759210281.25,-36,-37,27,0,0,0,0,0
1564759210312.5,-39,-35,28,0,0,0,0,0
1564759210343.75,-42,-35,31,0,0,0,0,0
1564759210375,-39,-33,33,0,0,0,0,0
1564759210406.25,-26,-34,39,0,0,0,0,0
1564759210437.5,-20,-34,43,0,0,0,0,0
1564759210468.75,-14,-34,53,0,0,0,0,0
1564759210500,-16,-33,56,0,0,0,0,0
1564759210531.25,-20,-30,56,0,0,0,0,0
1564759210562.5,-26,-29,51,0,0,0,0,0
1564759210593.75,-45,-28,39,0,0,0,0,0
1564759210625,-49,-28,36,0,0,0,0,0
1564759210656.25,-49,-30,29,0,0,0,0,0
1564759210687.5,-46,-30,26,0,0,0,0,0
1564759210718.75,-48,-34,14,0,0,0,0,0
1564759210750,-49,-36,9,0,0,0,0,0
1564759210781.25,-54,-37,1,0,0,0,0,0
1564759210812.5,-54,-37,3,0,0,0,0,0
1564759210843.75,-54,-36,6,0,0,0,0,0
1564759210875,-53,-35,7,0,0,0,0,0
1564759210906.25,-52,-32,12,0,0,0,0,0
1564759210937.5,-51,-32,10,0,0,0,0,0
1564759210968.75,-48,-31,11,0,0,0,0,0
1564759211000,-50,-31,17,0,0,0,0,0
1564759211031.25,-48,-32,15,0,0,0,0,0
1564759211062.5,-49,-31,15,0,0,0,0,0
1564759211093.75,-51,-30,16,0,0,0,0,0
1564759211125,-58,-27,18,0,0,0,0,0
1564759211156.25,-60,-26,18,0,0,0,0,0
1564759211187.5,-50,-25,22,0,0,0,0,0
1564759211218.75,-47,-24,24,0,0,0,0,0
1564759211250,-50,-22,32,0,0,0,0,0
1564759211281.25,-49,-22,33,0,0,0,0,0
1564759211312.5,-49,-22,32,0,0,0,0,0
1564759211343.75,-53,-20,33,0,0,0,0,0
1564759211375,-56,-19,35,0,0,0,0,0
1564759211406.25,-50,-20,35,0,0,0,0,0
1564759211437.5,-43,-19,41,0,0,0,0,0
1564759211468.75,-41,-21,42,0,0,0,0,0
1564759211500,-41,-20,43,0,0,0,0,0
1564759211531.25,-42,-20,43,0,0,0,0,0
1564759211562.5,-41,-20,43,0,0,0,0,0
1564759211593.75,-40,-19,43,0,0,0,0,0
1564759211625,-40,-20,45,0,0,0,0,0
1564759211656.25,-35,-20,47,0,0,0,0,0
1564759211687.5,-31,-20,48,0,0,0,0,0
1564759211718.75,-36,-20,47,0,0,0,0,0
1564759211750,-40,-20,45,0,0,0,0,0
1564759211781.25,-48,-21,36,0,0,0,0,0
1564759211812.5,-50,-21,34,0,0,0,0,0
1564759211843.75,-53,-21,30,0,0,0,0,0
1564759211875,-55,-21,27,0,0,0,0,0
1564759211906.25,-57,-24,18,0,0,0,0,0
1564759211937.5,-54,-25,14,0,0,0,0,0
1564759211968.75,-53,-26,7,0,0,0,0,0
1564759212000,-58,-26,7,0,0,0,0,0
1564759212031.25,-56,-25,13,0,0,0,0,0
1564759212062.5,-56,-25,15,0,0,0,0,0
1564759212093.75,-55,-23,15,0,0,0,0,0
1564759212125,-57,-22,16,0,0,0,0,0
1564759212156.25,-56,-21,19,0,0,0,0,0
1564759212187.5,-55,-22,21,0,0,0,0,0
1564759212218.75,-50,-21,25,0,0,0,0,0
1564759212250,-53,-22,25,0,0,0,0,0
1564759212281.25,-55,-21,25,0,0,0,0,0
1564759212312.5,-48,-21,28,0,0,0,0,0
1564759212343.75,-44,-21,30,0,0,0,0,0
1564759212375,-47,-21,31,0,0,0,0,0
1564759212406.25,-49,-21,30,0,0,0,0,0
1564759212437.5,-46,-18,34,0,0,0,0,0
1564759212468.75,-51,-17,36,0,0,0,0,0
1564759212500,-55,-19,31,0,0,0,0,0
1564759212531.25,-50,-19,27,0,0,0,0,0
1564759212562.5,-49,-20,19,0,0,0,0,0
1564759212593.75,-48,-21,17,0,0,0,0,0
1564759212625,-63,-21,16,0,0,0,0,0
1564759212656.25,-64,-21,19,0,0,0,0,0
1564759212687.5,-61,-17,20,0,0,0,0,0
1564759212718.75,-63,-16,17,0,0,0,0,0
1564759212750,-62,-16,14,0,0,0,0,0
1564759212781.25,-61,-15,16,0,0,0,0,0
1564759212812.5,-57,-16,21,0,0,0,0,0
1564759212843.75,-54,-15,27,0,0,0,0,0
1564759212875,-47,-16,33,0,0,0,0,0
1564759212906.25,-45,-16,39,0,0,0,0,0
1564759212937.5,-46,-16,39,0,0,0,0,0
1564759212968.75,-46,-15,37,0,0,0,0,0
1564759213000,-45,-15,38,0,0,0,0,0
1564759213031.25,-45,-15,39,0,0,0,0,0
1564759213062.5,-44,-15,40,0,0,0,0,0
1564759213093.75,-46,-15,40,0,0,0,0,0
1564759213125,-49,-15,38,0,0,0,0,0
1564759213156.25,-49,-15,37,0,0,0,0,0
1564759213187.5,-49,-15,36,0,0,0,0,0
1564759213218.75,-52,-15,34,0,0,0,0,0
1564759213250,-50,-16,35,0,0,0,0,0
1564759213281.25,-46,-15,36,0,0,0,0,0
1564759213312.5,-44,-15,37,0,0,0,0,0
1564759213343.75,-43,-16,39,0,0,0,0,0
1564759213375,-41,-15,41,0,0,0,0,0
1564759213406.25,-36,-13,44,0,0,0,0,0
1564759213437.5,-42,-12,41,0,0,0,0,0
1564759213468.75,-45,-12,36,0,0,0,0,0
1564759213500,-47,-10,31,0,0,0,0,0
1564759213531.25,-50,-10,28,0,0,0,0,0
1564759213562.5,-54,-10,22,0,0,0,0,0
1564759213593.75,-53,-9,18,0,0,0,0,0
1564759213625,-61,-8,6,0,0,0,0,0
1564759213656.25,-64,-9,-1,0,0,0,0,0
1564759213687.5,-67,-9,-13,0,0,0,0,0
1564759213718.75,-68,-9,-15,0,0,0,0,0
1564759213750,-67,-11,-21,0,0,0,0,0
1564759213781.25,-65,-12,-26,0,0,0,0,0
1564759213812.5,-65,-12,-27,0,0,0,0,0
1564759213843.75,-64,-12,-26,0,0,0,0,0
1564759213875,-60,-11,-24,0,0,0,0,0
1564759213906.25,-59,-12,-25,0,0,0,0,0
1564759213937.5,-57,-13,-24,0,0,0,0,0
1564759213968.75,-58,-13,-23,0,0,0,0,0
1564759214000,-60,-14,-26,0,0,0,0,0
1564759214031.25,-58,-13,-26,0,0,0,0,0
1564759214062.5,-61,-14,-24,0,0,0,0,0
1564759214093.75,-61,-14,-25,0,0,0,0,0
1564759214125,-62,-15,-26,0,0,0,0,0
1564759214156.25,-62,-15,-25,0,0,0,0,0
1564759214187.5,-63,-15,-25,0,0,0,0,0
1564759214218.75,-57,-17,-26,0,0,0,0,0
1564759214250,-56,-18,-27,0,0,0,0,0
1564759214281.25,-58,-22,-30,0,0,0,0,0
1564759214312.5,-54,-23,-28,0,0,0,0,0
1564759214343.75,-53,-23,-23,0,0,0,0,0
1564759214375,-52,-24,-21,0,0,0,0,0
1564759214406.25,-53,-26,-20,0,0,0,0,0
1564759214437.5,-52,-27,-17,0,0,0,0,0
1564759214468.75,-51,-28,-16,0,0,0,0,0
1564759214500,-49,-28,-14,0,0,0,0,0
1564759214531.25,-50,-28,-11,0,0,0,0,0
1564759214562.5,-53,-28,-10,0,0,0,0,0
1564759214593.75,-53,-28,-13,0,0,0,0,0
1564759214625,-55,-27,-12,0,0,0,0,0
1564759214656.25,-55,-27,-8,0,0,0,0,0
1564759214687.5,-53,-28,-13,0,0,0,0,0
1564759214718.75,-54,-28,-13,0,0,0,0,0
1564759214750,-55,-28,-13,0,0,0,0,0
1564759214781.25,-56,-28,-13,0,0,0,0,0
1564759214812.5,-55,-29,-15,0,0,0,0,0
1564759214843.75,-56,-29,-15,0,0,0,0,0
1564759214875,-54,-29,-13,0,0,0,0,0
1564759214906.25,-53,-29,-13,0,0,0,0,0
1564759214937.5,-50,-29,-13,0,0,0,0,0
1564759214968.75,-50,-30,-12,0,0,0,0,0
1564759215000,-50,-30,-14,0,0,0,0,0
1564759215031.25,-49,-29,-14,0,0,0,0,0
1564759215062.5,-52,-28,-13,0,0,0,0,0
1564759215093.75,-52,-26,-11,0,0,0,0,0
1564759215125,-53,-26,-14,0,0,0,0,0
1564759215156.25,-54,-23,-16,0,0,0,0,0
1564759215187.5,-55,-22,-18,0,0,0,0,0
1564759215218.75,-59,-23,-20,0,0,0,0,0
1564759215250,-64,-18,-15,0,0,0,0,0
1564759215281.25,-66,-18,-14,0,0,0,0,0
1564759215312.5,-61,-16,-15,0,0,0,0,0
1564759215343.75,-60,-16,-17,0,0,0,0,0
1564759215375,-59,-16,-19,0,0,0,0,0
1564759215406.25,-63,-15,-16,0,0,0,0,0
1564759215437.5,-62,-14,-13,0,0,0,0,0
1564759215468.75,-65,-14,-14,0,0,0,0,0
1564759215500,-62,-11,-15,0,0,0,0,0
1564759215531.25,-58,-12,-20,0,0,0,0,0
1564759215562.5,-60,-14,-21,0,0,0,0,0
1564759215593.75,-56,-15,-22,0,0,0,0,0
1564759215625,-55,-15,-23,0,0,0,0,0
1564759215656.25,-58,-14,-24,0,0,0,0,0
1564759215687.5,-58,-15,-24,0,0,0,0,0
1564759215718.75,-58,-13,-22,0,0,0,0,0
1564759215750,-56,-12,-21,0,0,0,0,0
1564759215781.25,-54,-12,-23,0,0,0,0,0
1564759215812.5,-48,-11,-23,0,0,0,0,0
1564759215843.75,-56,-9,-21,0,0,0,0,0
1564759215875,-59,-9,-22,0,0,0,0,0
1564759215906.25,-56,-8,-24,0,0,0,0,0
1564759215937.5,-60,-4,-23,0,0,0,0,0
1564759215968.75,-62,-4,-21,0,0,0,0,0
1564759216000,-72,-3,-28,0,0,0,0,0
1564759216031.25,-99,-2,-40,0,0,0,0,0
1564759216062.5,-48,0,-20,0,0,0,0,0
1564759216093.75,-49,0,-23,0,0,0,0,0
1564759216125,-64,-3,-26,0,0,0,0,0
1564759216156.25,-67,-3,-25,0,0,0,0,0
1564759216187.5,-59,-1,-18,0,0,0,0,0
1564759216218.75,-60,0,-18,0,0,0,0,0
1564759216250,-62,0,-15,0,0,0,0,0
1564759216281.25,-64,0,-14,0,0,0,0,0
1564759216312.5,-61,0,-12,0,0,0,0,0
1564759216343.75,-61,0,-15,0,0,0,0,0
1564759216375,-62,0,-17,0,0,0,0,0
1564759216406.25,-60,-1,-17,0,0,0,0,0
1564759216437.5,-62,-1,-19,0,0,0,0,0
1564759216468.75,-60,-1,-18,0,0,0,0,0
1564759216500,-62,-4,-19,0,0,0,0,0
1564759216531.25,-64,-3,-20,0,0,0,0,0
1564759216562.5,-64,-2,-16,0,0,0,0,0
1564759216593.75,-57,9,-26,0,0,0,0,0
1564759216625,-65,6,-31,0,0,0,0,0
1564759216656.25,-51,3,-28,0,0,0,0,0
1564759216687.5,-48,-1,-28,0,0,0,0,0
1564759216718.75,-54,-5,-25,0,0,0,0,0
1564759216750,-57,-7,-25,0,0,0,0,0
1564759216781.25,-58,-10,-27,0,0,0,0,0
1564759216812.5,-57,-8,-25,0,0,0,0,0
1564759216843.75,-59,-7,-22,0,0,0,0,0
1564759216875,-61,-6,-21,0,0,0,0,0
1564759216906.25,-63,-9,-24,0,0,0,0,0
1564759216937.5,-62,-10,-25,0,0,0,0,0
1564759216968.75,-63,-6,-21,0,0,0,0,0
1564759217000,-62,-2,-18,0,0,0,0,0
1564759217031.25,-62,-2,-20,0,0,0,0,0
1564759217062.5,-61,-2,-22,0,0,0,0,0
1564759217093.75,-61,0,-22,0,0,0,0,0
1564759217125,-58,1,-19,0,0,0,0,0
1564759217156.25,-58,0,-20,0,0,0,0,0
1564759217187.5,-59,-5,-25,0,0,0,0,0
1564759217218.75,-56,-4,-30,0,0,0,0,0
1564759217250,-60,-7,-25,0,0,0,0,0
1564759217281.25,-58,-6,-23,0,0,0,0,0
1564759217312.5,-58,-6,-23,0,0,0,0,0
1564759217343.75,-62,-6,-26,0,0,0,0,0
1564759217375,-61,-4,-20,0,0,0,0,0
1564759217406.25,-61,-5,-18,0,0,0,0,0
1564759217437.5,-70,-5,-23,0,0,0,0,0
1564759217468.75,-68,-1,-13,0,0,0,0,0
1564759217500,-65,3,-8,0,0,0,0,0
1564759217531.25,-72,4,-11,0,0,0,0,0
1564759217562.5,-77,1,-9,0,0,0,0,0
1564759217593.75,-74,1,-7,0,0,0,0,0
1564759217625,-83,-6,-9,0,0,0,0,0
1564759217656.25,-76,-5,-6,0,0,0,0,0
1564759217687.5,-71,-10,-10,0,0,0,0,0
1564759217718.75,-57,-12,-5,0,0,0,0,0
1564759217750,-39,-23,-3,0,0,0,0,0
1564759217781.25,-31,-24,-3,0,0,0,0,0
1564759217812.5,-31,-32,-7,0,0,0,0,0
1564759217843.75,-32,-34,-12,0,0,0,0,0
1564759217875,-30,-36,-17,0,0,0,0,0
1564759217906.25,-31,-31,-6,0,0,0,0,0
1564759217937.5,-44,-26,3,0,0,0,0,0
1564759217968.75,-43,-19,-4,0,0,0,0,0
1564759218000,-63,-23,-18,0,0,0,0,0
1564759218031.25,-66,-21,-16,0,0,0,0,0
1564759218062.5,-74,-25,-18,0,0,0,0,0
1564759218093.75,-70,-28,-19,0,0,0,0,0
1564759218125,-63,-27,-18,0,0,0,0,0
1564759218156.25,-58,-27,-19,0,0,0,0,0
1564759218187.5,-55,-26,-19,0,0,0,0,0
1564759218218.75,-58,-27,-21,0,0,0,0,0
1564759218250,-59,-29,-24,0,0,0,0,0
1564759218281.25,-63,-25,-25,0,0,0,0,0
1564759218312.5,-61,-23,-22,0,0,0,0,0
1564759218343.75,-57,-18,-20,0,0,0,0,0
1564759218375,-55,-18,-22,0,0,0,0,0
1564759218406.25,-56,-16,-17,0,0,0,0,0
1564759218437.5,-58,-20,-21,0,0,0,0,0
1564759218468.75,-57,-25,-25,0,0,0,0,0
1564759218500,-55,-25,-18,0,0,0,0,0
1564759218531.25,-57,-27,-21,0,0,0,0,0
1564759218562.5,-57,-26,-20,0,0,0,0,0
1564759218593.75,-56,-24,-19,0,0,0,0,0
1564759218625,-46,-29,-11,0,0,0,0,0
1564759218656.25,-47,-29,-7,0,0,0,0,0
1564759218687.5,-46,-29,-6,0,0,0,0,0
1564759218718.75,-48,-28,-7,0,0,0,0,0
1564759218750,-56,-25,-4,0,0,0,0,0
1564759218781.25,-52,-24,0,0,0,0,0,0
1564759218812.5,-43,-20,1,0,0,0,0,0
1564759218843.75,-54,-17,4,0,0,0,0,0
1564759218875,-59,-18,6,0,0,0,0,0
1564759218906.25,-60,-15,5,0,0,0,0,0
1564759218937.5,-64,-5,8,0,0,0,0,0
1564759218968.75,-66,-2,10,0,0,0,0,0
1564759219000,-72,9,20,0,0,0,0,0
1564759219031.25,-76,9,40,0,0,0,0,0
1564759219062.5,-36,7,74,0,0,0,0,0
1564759219093.75,-24,-3,45,0,0,0,0,0
1564759219125,-33,-8,36,0,0,0,0,0
1564759219156.25,-45,-7,45,0,0,0,0,0
1564759219187.5,-47,6,60,0,0,0,0,0
1564759219218.75,-53,7,39,0,0,0,0,0
1564759219250,-59,6,38,0,0,0,0,0
1564759219281.25,-26,6,51,0,0,0,0,0
1564759219312.5,-28,10,50,0,0,0,0,0
1564759219343.75,-52,11,49,0,0,0,0,0
1564759219375,-48,1,42,0,0,0,0,0
1564759219406.25,-45,9,43,0,0,0,0,0
1564759219437.5,-48,6,40,0,0,0,0,0
1564759219468.75,-40,9,49,0,0,0,0,0
1564759219500,-44,1,45,0,0,0,0,0
1564759219531.25,-34,7,54,0,0,0,0,0
1564759219562.5,-40,3,45,0,0,0,0,0
1564759219593.75,-46,6,38,0,0,0,0,0
1564759219625,-45,7,41,0,0,0,0,0
1564759219656.25,-52,10,41,0,0,0,0,0
1564759219687.5,-51,7,38,0,0,0,0,0
1564759219718.75,-52,2,33,0,0,0,0,0
1564759219750,-47,7,51,0,0,0,0,0
1564759219781.25,-33,7,57,0,0,0,0,0
1564759219812.5,-39,2,50,0,0,0,0,0
1564759219843.75,-35,10,52,0,0,0,0,0
1564759219875,-41,14,58,0,0,0,0,0
1564759219906.25,-44,8,51,0,0,0,0,0
1564759219937.5,-49,5,44,0,0,0,0,0
1564759219968.75,-56,12,46,0,0,0,0,0
1564759220000,-52,1,44,0,0,0,0,0
1564759220031.25,-33,-1,45,0,0,0,0,0
1564759220062.5,-17,-3,21,0,0,0,0,0
1564759220093.75,-44,-6,-6,0,0,0,0,0
1564759220125,-62,-14,2,0,0,0,0,0
1564759220156.25,-83,-17,17,0,0,0,0,0
1564759220187.5,-70,-7,0,0,0,0,0,0
1564759220218.75,-41,-4,9,0,0,0,0,0
1564759220250,-80,-6,-5,0,0,0,0,0
1564759220281.25,-81,-4,6,0,0,0,0,0
1564759220312.5,-59,-3,27,0,0,0,0,0
1564759220343.75,-71,-2,16,0,0,0,0,0
1564759220375,-58,-3,25,0,0,0,0,0
1564759220406.25,-8,12,55,0,0,0,0,0
1564759220437.5,-13,40,96,0,0,0,0,0
1564759220468.75,-40,7,47,0,0,0,0,0
1564759220500,-43,8,42,0,0,0,0,0
1564759220531.25,-53,6,35,0,0,0,0,0
1564759220562.5,-58,3,46,0,0,0,0,0
1564759220593.75,-26,-1,59,0,0,0,0,0
1564759220625,-18,-2,51,0,0,0,0,0
1564759220656.25,-2,-6,54,0,0,0,0,0
1564759220687.5,-14,-9,52,0,0,0,0,0
1564759220718.75,-23,-4,60,0,0,0,0,0
1564759220750,-29,1,65,0,0,0,0,0
1564759220781.25,-30,6,67,0,0,0,0,0
1564759220812.5,-21,6,62,0,0,0,0,0
1564759220843.75,-12,4,59,0,0,0,0,0
1564759220875,-7,2,60,0,0,0,0,0
1564759220906.25,-34,2,43,0,0,0,0,0
1564759220937.5,-8,3,64,0,0,0,0,0
1564759220968.75,-21,10,67,0,0,0,0,0
1564759221000,11,10,74,0,0,0,0,0
1564759221031.25,7,10,77,0,0,0,0,0
1564759221062.5,-21,1,68,0,0,0,0,0
1564759221093.75,-17,-2,52,0,0,0,0,0
1564759221125,22,5,58,0,0,0,0,0
1564759221156.25,-25,-6,38,0,0,0,0,0
1564759221187.5,-12,-16,25,0,0,0,0,0
1564759221218.75,-23,-14,12,0,0,0,0,0
1564759221250,-40,-6,15,0,0,0,0,0
1564759221281.25,-59,-12,15,0,0,0,0,0
1564759221312.5,-113,9,11,0,0,0,0,0
1564759221343.75,-39,18,20,0,0,0,0,0
1564759221375,-49,14,-10,0,0,0,0,0
1564759221406.25,-95,23,0,0,0,0,0,0
1564759221437.5,-93,1,6,0,0,0,0,0
1564759221468.75,-69,-5,10,0,0,0,0,0
1564759221500,-47,-14,3,0,0,0,0,0
1564759221531.25,-31,-31,-30,0,0,0,0,0
1564759221562.5,-27,-38,-36,0,0,0,0,0
1564759221593.75,-121,-12,-88,0,0,0,0,0
1564759221625,-22,6,-41,0,0,0,0,0
1564759221656.25,-88,23,-33,0,0,0,0,0
1564759221687.5,-50,19,-22,0,0,0,0,0
1564759221718.75,-79,8,-20,0,0,0,0,0
1564759221750,-68,6,-18,0,0,0,0,0
1564759221781.25,-57,-17,-28,0,0,0,0,0
1564759221812.5,-56,-19,-33,0,0,0,0,0
1564759221843.75,-51,-9,-33,0,0,0,0,0
1564759221875,-62,-4,-33,0,0,0,0,0
1564759221906.25,-53,-4,-32,0,0,0,0,0
1564759221937.5,-50,-10,-29,0,0,0,0,0
1564759221968.75,-67,-7,-16,0,0,0,0,0
1564759222000,-54,-1,-22,0,0,0,0,0
1564759222031.25,-60,1,-16,0,0,0,0,0
1564759222062.5,-64,0,-14,0,0,0,0,0
1564759222093.75,-58,-7,-39,0,0,0,0,0
1564759222125,-55,-6,-36,0,0,0,0,0
1564759222156.25,-62,9,-16,0,0,0,0,0
1564759222187.5,-55,12,-7,0,0,0,0,0
1564759222218.75,-126,70,-68,0,0,0,0,0
1564759222250,-49,127,-128,0,0,0,0,0
1564759222281.25,-128,92,-126,0,0,0,0,0
1564759222312.5,-72,63,-51,0,0,0,0,0
1564759222343.75,-40,60,-21,0,0,0,0,0
1564759222375,-42,23,-42,0,0,0,0,0
1564759222406.25,-9,22,-27,0,0,0,0,0
1564759222437.5,20,6,12,0,0,0,0,0
1564759222468.75,14,6,11,0,0,0,0,0
1564759222500,3,26,-7,0,0,0,0,0
1564759222531.25,-10,35,-35,0,0,0,0,0
1564759222562.5,-88,41,-102,0,0,0,0,0
1564759222593.75,-117,25,-93,0,0,0,0,0
1564759222625,-72,7,-63,0,0,0,0,0
1564759222656.25,-59,-6,-58,0,0,0,0,0
1564759222687.5,-57,-18,-65,0,0,0,0,0
1564759222718.75,-57,-26,-63,0,0,0,0,0
1564759222750,-54,-18,-52,0,0,0,0,0
1564759222781.25,-56,-15,-47,0,0,0,0,0
1564759222812.5,-58,-1,-35,0,0,0,0,0
1564759222843.75,-61,14,-30,0,0,0,0,0
1564759222875,-57,22,-28,0,0,0,0,0
1564759222906.25,-65,47,-29,0,0,0,0,0
1564759222937.5,-69,62,-28,0,0,0,0,0
1564759222968.75,-79,70,-25,0,0,0,0,0
1564759223000,-78,66,-23,0,0,0,0,0
1564759223031.25,-63,56,-18,0,0,0,0,0
1564759223062.5,-54,50,-20,0,0,0,0,0
1564759223093.75,-43,37,-32,0,0,0,0,0
1564759223125,-42,27,-38,0,0,0,0,0
1564759223156.25,-42,5,-48,0,0,0,0,0
1564759223187.5,-46,-6,-52,0,0,0,0,0
1564759223218.75,-56,-14,-68,0,0,0,0,0
1564759223250,-53,-15,-76,0,0,0,0,0
1564759223281.25,-45,-6,-82,0,0,0,0,0
1564759223312.5,-46,2,-81,0,0,0,0,0
1564759223343.75,-38,16,-67,0,0,0,0,0
1564759223375,-35,20,-56,0,0,0,0,0
1564759223406.25,-36,26,-50,0,0,0,0,0
1564759223437.5,-39,38,-50,0,0,0,0,0
1564759223468.75,-39,41,-54,0,0,0,0,0
1564759223500,-36,45,-55,0,0,0,0,0
1564759223531.25,-36,45,-49,0,0,0,0,0
1564759223562.5,-23,40,-43,0,0,0,0,0
1564759223593.75,-6,39,-46,0,0,0,0,0
1564759223625,23,44,-54,0,0,0,0,0
1564759223656.25,17,37,-54,0,0,0,0,0
1564759223687.5,-4,34,-49,0,0,0,0,0
1564759223718.75,-8,36,-42,0,0,0,0,0
1564759223750,-37,39,-45,0,0,0,0,0
1564759223781.25,-58,40,-56,0,0,0,0,0
1564759223812.5,-58,51,-69,0,0,0,0,0
1564759223843.75,-59,55,-67,0,0,0,0,0
1564759223875,-69,49,-39,0,0,0,0,0
1564759223906.25,-62,41,-48,0,0,0,0,0
1564759223937.5,-45,29,-46,0,0,0,0,0
1564759223968.75,-38,34,-43,0,0,0,0,0
1564759224000,-13,42,-44,0,0,0,0,0
1564759224031.25,-16,56,-44,0,0,0,0,0
1564759224062.5,-7,78,-42,0,0,0,0,0
1564759224093.75,-5,97,-48,0,0,0,0,0
1564759224125,-13,100,-47,0,0,0,0,0
1564759224156.25,-9,91,-33,0,0,0,0,0
1564759224187.5,-7,82,-27,0,0,0,0,0
1564759224218.75,-6,64,-25,0,0,0,0,0
1564759224250,-7,58,-21,0,0,0,0,0
1564759224281.25,-7,48,-12,0,0,0,0,0
1564759224312.5,-9,45,-10,0,0,0,0,0
1564759224343.75,-16,40,-13,0,0,0,0,0
1564759224375,-21,39,-14,0,0,0,0,0
1564759224406.25,-26,44,-18,0,0,0,0,0
1564759224437.5,-28,47,-21,0,0,0,0,0
1564759224468.75,-42,49,-31,0,0,0,0,0
1564759224500,-48,52,-32,0,0,0,0,0
1564759224531.25,-50,55,-35,0,0,0,0,0
1564759224562.5,-48,54,-40,0,0,0,0,0
1564759224593.75,-45,43,-46,0,0,0,0,0
1564759224625,-44,35,-45,0,0,0,0,0
1564759224656.25,-46,27,-44,0,0,0,0,0
1564759224687.5,-47,28,-50,0,0,0,0,0
1564759224718.75,-46,27,-55,0,0,0,0,0
1564759224750,-43,29,-57,0,0,0,0,0
1564759224781.25,-43,31,-54,0,0,0,0,0
1564759224812.5,-40,36,-43,0,0,0,0,0
1564759224843.75,-34,37,-42,0,0,0,0,0
1564759224875,-28,37,-36,0,0,0,0,0
1564759224906.25,-23,39,-32,0,0,0,0,0
1564759224937.5,-22,40,-23,0,0,0,0,0
1564759224968.75,-23,40,-16,0,0,0,0,0
1564759225000,-31,47,-10,0,0,0,0,0
1564759225031.25,-30,47,-11,0,0,0,0,0
1564759225062.5,-28,45,-27,0,0,0,0,0
1564759225093.75,-36,49,-28,0,0,0,0,0
1564759225125,-33,56,-29,0,0,0,0,0
1564759225156.25,-29,56,-35,0,0,0,0,0
1564759225187.5,-29,58,-57,0,0,0,0,0
1564759225218.75,-35,60,-65,0,0,0,0,0
1564759225250,-49,51,-75,0,0,0,0,0
1564759225281.25,-57,43,-75,0,0,0,0,0
1564759225312.5,-55,36,-66,0,0,0,0,0
1564759225343.75,-34,37,-54,0,0,0,0,0
1564759225375,-33,33,-53,0,0,0,0,0
1564759225406.25,-25,34,-39,0,0,0,0,0
1564759225437.5,-12,32,-35,0,0,0,0,0
1564759225468.75,-24,33,-34,0,0,0,0,0
1564759225500,-25,33,-34,0,0,0,0,0
1564759225531.25,-27,32,-40,0,0,0,0,0
1564759225562.5,-30,34,-41,0,0,0,0,0
1564759225593.75,-33,38,-34,0,0,0,0,0
1564759225625,-36,40,-33,0,0,0,0,0
1564759225656.25,-45,47,-29,0,0,0,0,0
1564759225687.5,-45,48,-26,0,0,0,0,0
1564759225718.75,-42,45,-22,0,0,0,0,0
1564759225750,-42,41,-23,0,0,0,0,0
1564759225781.25,-39,38,-27,0,0,0,0,0
1564759225812.5,-36,39,-28,0,0,0,0,0
1564759225843.75,-32,46,-32,0,0,0,0,0
1564759225875,-32,52,-35,0,0,0,0,0
1564759225906.25,-33,65,-40,0,0,0,0,0
1564759225937.5,-31,69,-41,0,0,0,0,0
1564759225968.75,-30,65,-37,0,0,0,0,0
1564759226000,-32,63,-27,0,0,0,0,0
1564759226031.25,-33,66,-22,0,0,0,0,0
1564759226062.5,-30,66,-18,0,0,0,0,0
1564759226093.75,-27,64,-18,0,0,0,0,0
1564759226125,-22,58,-19,0,0,0,0,0
1564759226156.25,-18,54,-19,0,0,0,0,0
1564759226187.5,-19,53,-15,0,0,0,0,0
1564759226218.75,-23,55,-13,0,0,0,0,0
1564759226250,-18,52,-10,0,0,0,0,0
1564759226281.25,-13,52,-10,0,0,0,0,0
1564759226312.5,-19,54,-14,0,0,0,0,0
1564759226343.75,-19,56,-13,0,0,0,0,0
1564759226375,-19,64,-13,0,0,0,0,0
1564759226406.25,-23,68,-14,0,0,0,0,0
1564759226437.5,-23,66,-10,0,0,0,0,0
1564759226468.75,-22,67,-8,0,0,0,0,0
1564759226500,-22,68,-4,0,0,0,0,0
1564759226531.25,-26,66,-1,0,0,0,0,0
1564759226562.5,-32,60,-3,0,0,0,0,0
1564759226593.75,-37,55,-14,0,0,0,0,0
1564759226625,-43,52,-19,0,0,0,0,0
1564759226656.25,-53,47,-25,0,0,0,0,0
1564759226687.5,-54,48,-24,0,0,0,0,0
1564759226718.75,-48,54,-18,0,0,0,0,0
1564759226750,-47,59,-15,0,0,0,0,0
1564759226781.25,-44,70,-11,0,0,0,0,0
1564759226812.5,-38,73,-12,0,0,0,0,0
1564759226843.75,-28,67,-16,0,0,0,0,0
1564759226875,-25,62,-15,0,0,0,0,0
1564759226906.25,-23,54,-11,0,0,0,0,0
1564759226937.5,-24,51,-9,0,0,0,0,0
1564759226968.75,-23,49,-8,0,0,0,0,0
1564759227000,-20,51,-8,0,0,0,0,0
1564759227031.25,-19,56,-11,0,0,0,0,0
1564759227062.5,-16,59,-15,0,0,0,0,0
1564759227093.75,-16,57,-19,0,0,0,0,0
1564759227125,-19,51,-18,0,0,0,0,0
1564759227156.25,-25,47,-11,0,0,0,0,0
1564759227187.5,-26,47,-6,0,0,0,0,0
1564759227218.75,-22,49,-7,0,0,0,0,0
1564759227250,-19,55,-13,0,0,0,0,0
1564759227281.25,-18,58,-16,0,0,0,0,0
1564759227312.5,-19,61,-19,0,0,0,0,0
1564759227343.75,-24,61,-19,0,0,0,0,0
1564759227375,-30,61,-15,0,0,0,0,0
1564759227406.25,-33,60,-14,0,0,0,0,0
1564759227437.5,-34,60,-16,0,0,0,0,0
1564759227468.75,-32,63,-17,0,0,0,0,0
1564759227500,-29,70,-19,0,0,0,0,0
1564759227531.25,-26,71,-20,0,0,0,0,0
1564759227562.5,-25,67,-21,0,0,0,0,0
1564759227593.75,-28,65,-19,0,0,0,0,0
1564759227625,-32,63,-15,0,0,0,0,0
1564759227656.25,-34,61,-14,0,0,0,0,0
1564759227687.5,-35,57,-16,0,0,0,0,0
1564759227718.75,-36,56,-16,0,0,0,0,0
1564759227750,-38,56,-17,0,0,0,0,0
1564759227781.25,-38,58,-15,0,0,0,0,0
1564759227812.5,-36,58,-14,0,0,0,0,0
1564759227843.75,-32,57,-12,0,0,0,0,0
1564759227875,-31,56,-12,0,0,0,0,0
1564759227906.25,-29,55,-14,0,0,0,0,0
1564759227937.5,-27,54,-15,0,0,0,0,0
1564759227968.75,-25,53,-15,0,0,0,0,0
1564759228000,-24,53,-15,0,0,0,0,0
1564759228031.25,-23,55,-15,0,0,0,0,0
1564759228062.5,-23,55,-16,0,0,0,0,0
1564759228093.75,-25,50,-16,0,0,0,0,0
1564759228125,-25,49,-16,0,0,0,0,0
1564759228156.25,-25,55,-15,0,0,0,0,0
1564759228187.5,-25,58,-15,0,0,0,0,0
1564759228218.75,-21,64,-15,0,0,0,0,0
1564759228250,-20,63,-14,0,0,0,0,0
1564759228281.25,-21,65,-13,0,0,0,0,0
1564759228312.5,-24,65,-13,0,0,0,0,0
1564759228343.75,-23,61,-14,0,0,0,0,0
1564759228375,-23,60,-13,0,0,0,0,0
1564759228406.25,-22,56,-11,0,0,0,0,0
1564759228437.5,-19,52,-10,0,0,0,0,0
1564759228468.75,-19,50,-11,0,0,0,0,0
1564759228500,-19,49,-12,0,0,0,0,0
1564759228531.25,-19,50,-14,0,0,0,0,0
1564759228562.5,-21,57,-18,0,0,0,0,0
1564759228593.75,-23,60,-21,0,0,0,0,0
1564759228625,-26,64,-27,0,0,0,0,0
1564759228656.25,-29,65,-29,0,0,0,0,0
1564759228687.5,-32,66,-30,0,0,0,0,0
1564759228718.75,-35,66,-30,0,0,0,0,0
1564759228750,-36,62,-28,0,0,0,0,0
1564759228781.25,-37,59,-26,0,0,0,0,0
1564759228812.5,-39,56,-25,0,0,0,0,0
1564759228843.75,-38,54,-26,0,0,0,0,0
1564759228875,-36,52,-25,0,0,0,0,0
1564759228906.25,-33,54,-24,0,0,0,0,0
1564759228937.5,-33,56,-24,0,0,0,0,0
1564759228968.75,-33,57,-23,0,0,0,0,0
1564759229000,-29,56,-21,0,0,0,0,0
1564759229031.25,-30,57,-19,0,0,0,0,0
1564759229062.5,-30,58,-18,0,0,0,0,0
1564759229093.75,-26,61,-16,0,0,0,0,0
1564759229125,-26,61,-16,0,0,0,0,0
1564759229156.25,-23,60,-16,0,0,0,0,0
1564759229187.5,-24,60,-15,0,0,0,0,0
1564759229218.75,-20,60,-10,0,0,0,0,0
1564759229250,-21,60,-8,0,0,0,0,0
1564759229281.25,-25,59,-7,0,0,0,0,0
1564759229312.5,-28,62,-6,0,0,0,0,0
1564759229343.75,-15,57,-1,0,0,0,0,0
1564759229375,-18,57,-6,0,0,0,0,0
1564759229406.25,-17,56,-11,0,0,0,0,0
1564759229437.5,-20,57,-11,0,0,0,0,0
1564759229468.75,-23,56,-10,0,0,0,0,0
1564759229500,-25,56,-10,0,0,0,0,0
1564759229531.25,-30,58,-8,0,0,0,0,0
1564759229562.5,-29,59,-5,0,0,0,0,0
1564759229593.75,-30,63,-1,0,0,0,0,0
1564759229625,-29,65,4,0,0,0,0,0
1564759229656.25,-22,65,4,0,0,0,0,0
1564759229687.5,-23,66,5,0,0,0,0,0
1564759229718.75,-21,66,7,0,0,0,0,0
1564759229750,-23,62,4,0,0,0,0,0
1564759229781.25,-26,63,5,0,0,0,0,0
1564759229812.5,-31,61,4,0,0,0,0,0
1564759229843.75,-31,61,5,0,0,0,0,0
1564759229875,-26,61,4,0,0,0,0,0
1564759229906.25,-25,61,4,0,0,0,0,0
1564759229937.5,-21,59,3,0,0,0,0,0
1564759229968.75,-22,59,2,0,0,0,0,0
1564759230000,-25,59,-1,0,0,0,0,0
1564759230031.25,-26,59,-2,0,0,0,0,0
1564759230062.5,-29,59,-5,0,0,0,0,0
1564759230093.75,-29,59,-5,0,0,0,0,0
1564759230125,-27,59,-5,0,0,0,0,0
1564759230156.25,-25,60,-4,0,0,0,0,0
1564759230187.5,-26,59,-2,0,0,0,0,0
1564759230218.75,-27,59,0,0,0,0,0,0
1564759230250,-27,60,2,0,0,0,0,0
1564759230281.25,-29,63,5,0,0,0,0,0
1564759230312.5,-28,63,6,0,0,0,0,0
1564759230343.75,-27,62,8,0,0,0,0,0
1564759230375,-27,63,9,0,0,0,0,0
1564759230406.25,-28,61,12,0,0,0,0,0
1564759230437.5,-30,60,12,0,0,0,0,0
1564759230468.75,-29,57,12,0,0,0,0,0
1564759230500,-27,56,11,0,0,0,0,0
1564759230531.25,-25,53,10,0,0,0,0,0
1564759230562.5,-25,52,9,0,0,0,0,0
1564759230593.75,-23,53,7,0,0,0,0,0
1564759230625,-23,54,6,0,0,0,0,0
1564759230656.25,-23,58,3,0,0,0,0,0
1564759230687.5,-23,59,2,0,0,0,0,0
1564759230718.75,-24,63,-1,0,0,0,0,0
1564759230750,-26,64,-1,0,0,0,0,0
1564759230781.25,-25,64,-2,0,0,0,0,0
1564759230812.5,-23,63,-3,0,0,0,0,0
1564759230843.75,-23,60,-3,0,0,0,0,0
1564759230875,-21,59,-2,0,0,0,0,0
1564759230906.25,-20,58,-2,0,0,0,0,0
1564759230937.5,-20,58,-1,0,0,0,0,0
1564759230968.75,-21,58,-1,0,0,0,0,0
1564759231000,-20,58,0,0,0,0,0,0
1564759231031.25,-20,58,1,0,0,0,0,0
1564759231062.5,-20,58,2,0,0,0,0,0
1564759231093.75,-22,59,3,0,0,0,0,0
1564759231125,-20,60,11,0,0,0,0,0
1564759231156.25,-19,60,13,0,0,0,0,0
1564759231187.5,-19,60,13,0,0,0,0,0
1564759231218.75,-19,61,12,0,0,0,0,0
1564759231250,-18,64,5,0,0,0,0,0
1564759231281.25,-20,64,2,0,0,0,0,0
1564759231312.5,-28,63,-5,0,0,0,0,0
1564759231343.75,-31,63,-5,0,0,0,0,0
1564759231375,-36,67,-7,0,0,0,0,0
1564759231406.25,-38,65,-9,0,0,0,0,0
1564759231437.5,-34,60,-7,0,0,0,0,0
1564759231468.75,-34,59,-5,0,0,0,0,0
1564759231500,-27,61,0,0,0,0,0,0
1564759231531.25,-27,62,-4,0,0,0,0,0
1564759231562.5,-32,64,-6,0,0,0,0,0
1564759231593.75,-25,62,4,0,0,0,0,0
1564759231625,-30,62,5,0,0,0,0,0
1564759231656.25,-27,60,8,0,0,0,0,0
1564759231687.5,-25,60,10,0,0,0,0,0
1564759231718.75,-26,59,5,0,0,0,0,0
1564759231750,-29,60,6,0,0,0,0,0
1564759231781.25,-42,63,14,0,0,0,0,0
1564759231812.5,-47,62,16,0,0,0,0,0
1564759231843.75,-5,50,-9,0,0,0,0,0
1564759231875,-16,60,-6,0,0,0,0,0
1564759231906.25,-28,63,9,0,0,0,0,0
1564759231937.5,-22,62,11,0,0,0,0,0
1564759231968.75,-18,61,7,0,0,0,0,0
1564759232000,-25,63,11,0,0,0,0,0
1564759232031.25,-23,61,11,0,0,0,0,0
1564759232062.5,-10,55,2,0,0,0,0,0
1564759232093.75,-26,60,2,0,0,0,0,0
1564759232125,-21,57,2,0,0,0,0,0
1564759232156.25,-20,57,3,0,0,0,0,0
1564759232187.5,-20,57,4,0,0,0,0,0
1564759232218.75,-20,58,6,0,0,0,0,0
1564759232250,-25,59,16,0,0,0,0,0
1564759232281.25,-26,59,11,0,0,0,0,0
1564759232312.5,-36,59,11,0,0,0,0,0
1564759232343.75,-35,56,10,0,0,0,0,0
1564759232375,-38,54,-5,0,0,0,0,0
1564759232406.25,-33,46,3,0,0,0,0,0
1564759232437.5,-51,52,0,0,0,0,0,0
1564759232468.75,-49,47,-6,0,0,0,0,0
1564759232500,-58,43,-33,0,0,0,0,0
1564759232531.25,-59,48,-24,0,0,0,0,0
1564759232562.5,-50,53,-1,0,0,0,0,0
1564759232593.75,-39,49,-14,0,0,0,0,0
1564759232625,-23,48,-15,0,0,0,0,0
1564759232656.25,-24,49,-16,0,0,0,0,0
1564759232687.5,-22,56,-9,0,0,0,0,0
1564759232718.75,-29,62,-7,0,0,0,0,0
1564759232750,-32,63,-14,0,0,0,0,0
1564759232781.25,-23,73,-5,0,0,0,0,0
1564759232812.5,-21,70,-5,0,0,0,0,0
1564759232843.75,-15,70,5,0,0,0,0,0
1564759232875,-15,71,6,0,0,0,0,0
1564759232906.25,-18,69,3,0,0,0,0,0
1564759232937.5,-19,67,-2,0,0,0,0,0
1564759232968.75,-23,64,-14,0,0,0,0,0
1564759233000,-34,67,-14,0,0,0,0,0
1564759233031.25,-28,63,-7,0,0,0,0,0
1564759233062.5,-21,60,-11,0,0,0,0,0
1564759233093.75,-15,61,-1,0,0,0,0,0
1564759233125,-14,60,-1,0,0,0,0,0
1564759233156.25,-19,57,1,0,0,0,0,0
1564759233187.5,-22,56,1,0,0,0,0,0
1564759233218.75,-15,52,-3,0,0,0,0,0
1564759233250,-17,53,-2,0,0,0,0,0
1564759233281.25,-27,57,-1,0,0,0,0,0
1564759233312.5,-25,61,-1,0,0,0,0,0
1564759233343.75,-30,62,2,0,0,0,0,0
1564759233375,-43,60,9,0,0,0,0,0
1564759233406.25,-46,64,14,0,0,0,0,0
1564759233437.5,-60,67,27,0,0,0,0,0
1564759233468.75,-48,62,26,0,0,0,0,0
1564759233500,-38,68,14,0,0,0,0,0
1564759233531.25,-52,73,7,0,0,0,0,0
1564759233562.5,-31,72,15,0,0,0,0,0
1564759233593.75,-26,68,15,0,0,0,0,0
1564759233625,-19,61,5,0,0,0,0,0
1564759233656.25,-15,59,7,0,0,0,0,0
1564759233687.5,-9,54,9,0,0,0,0,0
1564759233718.75,-12,51,5,0,0,0,0,0
1564759233750,-20,50,3,0,0,0,0,0
1564759233781.25,-19,50,5,0,0,0,0,0
1564759233812.5,-14,45,-10,0,0,0,0,0
1564759233843.75,-18,45,-18,0,0,0,0,0
1564759233875,-17,51,-22,0,0,0,0,0
1564759233906.25,-20,50,-27,0,0,0,0,0
1564759233937.5,-23,50,-36,0,0,0,0,0
1564759233968.75,-24,50,-36,0,0,0,0,0
1564759234000,-30,47,-38,0,0,0,0,0
1564759234031.25,-38,43,-40,0,0,0,0,0
1564759234062.5,-36,41,-40,0,0,0,0,0
1564759234093.75,-38,45,-32,0,0,0,0,0
1564759234125,-44,46,-33,0,0,0,0,0
1564759234156.25,-38,59,-38,0,0,0,0,0
1564759234187.5,-40,71,-42,0,0,0,0,0
1564759234218.75,-45,80,-49,0,0,0,0,0
1564759234250,-38,74,-49,0,0,0,0,0
1564759234281.25,-30,61,-40,0,0,0,0,0
1564759234312.5,-35,60,-36,0,0,0,0,0
1564759234343.75,-38,55,-38,0,0,0,0,0
1564759234375,-36,52,-38,0,0,0,0,0
1564759234406.25,-30,54,-39,0,0,0,0,0
1564759234437.5,-26,50,-47,0,0,0,0,0
1564759234468.75,-35,41,-51,0,0,0,0,0
1564759234500,-38,39,-46,0,0,0,0,0
1564759234531.25,-39,36,-41,0,0,0,0,0
1564759234562.5,-37,32,-39,0,0,0,0,0
1564759234593.75,-34,22,-39,0,0,0,0,0
1564759234625,-36,22,-40,0,0,0,0,0
1564759234656.25,-38,19,-38,0,0,0,0,0
1564759234687.5,-36,18,-38,0,0,0,0,0
1564759234718.75,-35,18,-41,0,0,0,0,0
1564759234750,-35,16,-40,0,0,0,0,0
1564759234781.25,-39,13,-42,0,0,0,0,0
1564759234812.5,-38,10,-43,0,0,0,0,0
1564759234843.75,-41,9,-43,0,0,0,0,0
1564759234875,-41,8,-43,0,0,0,0,0
1564759234906.25,-40,7,-43,0,0,0,0,0
1564759234937.5,-47,8,-45,0,0,0,0,0
1564759234968.75,-44,4,-48,0,0,0,0,0
1564759235000,-43,7,-50,0,0,0,0,0
1564759235031.25,-43,9,-48,0,0,0,0,0
1564759235062.5,-44,7,-48,0,0,0,0,0
1564759235093.75,-42,6,-47,0,0,0,0,0
1564759235125,-44,5,-46,0,0,0,0,0
1564759235156.25,-44,5,-45,0,0,0,0,0
1564759235187.5,-43,3,-44,0,0,0,0,0
1564759235218.75,-43,3,-45,0,0,0,0,0
1564759235250,-43,3,-45,0,0,0,0,0
1564759235281.25,-46,2,-45,0,0,0,0,0
1564759235312.5,-46,2,-45,0,0,0,0,0
1564759235343.75,-46,1,-47,0,0,0,0,0
1564759235375,-48,2,-47,0,0,0,0,0
1564759235406.25,-47,4,-47,0,0,0,0,0
1564759235437.5,-46,5,-47,0,0,0,0,0
1564759235468.75,-45,5,-47,0,0,0,0,0
1564759235500,-46,6,-47,0,0,0,0,0
1564759235531.25,-46,5,-46,0,0,0,0,0
1564759235562.5,-45,5,-46,0,0,0,0,0
1564759235593.75,-48,5,-45,0,0,0,0,0
1564759235625,-48,5,-45,0,0,0,0,0
1564759235656.25,-46,5,-45,0,0,0,0,0
1564759235687.5,-44,5,-44,0,0,0,0,0
1564759235718.75,-45,5,-44,0,0,0,0,0
1564759235750,-45,5,-44,0,0,0,0,0
1564759235781.25,-45,5,-45,0,0,0,0,0
1564759235812.5,-44,5,-45,0,0,0,0,0
1564759235843.75,-45,4,-45,0,0,0,0,0
1564759235875,-45,4,-45,0,0,0,0,0
1564759235906.25,-45,5,-46,0,0,0,0,0
1564759235937.5,-45,6,-46,0,0,0,0,0
1564759235968.75,-46,6,-46,0,0,0,0,0
1564759236000,-46,6,-47,0,0,0,0,0
1564759236031.25,-46,6,-47,0,0,0,0,0
1564759236062.5,-47,6,-46,0,0,0,0,0
1564759236093.75,-46,6,-46,0,0,0,0,0
1564759236125,-46,7,-46,0,0,0,0,0
1564759236156.25,-46,6,-47,0,0,0,0,0
1564759236187.5,-46,6,-46,0,0,0,0,0
1564759236218.75,-45,7,-46,0,0,0,0,0
1564759236250,-45,7,-45,0,0,0,0,0
1564759236281.25,-45,7,-45,0,0,0,0,0
1564759236312.5,-43,7,-44,0,0,0,0,0
1564759236343.75,-42,7,-45,0,0,0,0,0
1564759236375,-43,7,-45,0,0,0,0,0
1564759236406.25,-44,6,-47,0,0,0,0,0
1564759236437.5,-43,7,-48,0,0,0,0,0
1564759236468.75,-42,7,-48,0,0,0,0,0
1564759236500,-44,6,-49,0,0,0,0,0
1564759236531.25,-42,7,-50,0,0,0,0,0
1564759236562.5,-42,6,-52,0,0,0,0,0
1564759236593.75,-40,7,-52,0,0,0,0,0
1564759236625,-41,6,-51,0,0,0,0,0
1564759236656.25,-41,7,-49,0,0,0,0,0
1564759236687.5,-40,7,-49,0,0,0,0,0
1564759236718.75,-40,7,-49,0,0,0,0,0
1564759236750,-40,7,-50,0,0,0,0,0
1564759236781.25,-41,6,-48,0,0,0,0,0
1564759236812.5,-40,6,-48,0,0,0,0,0
1564759236843.75,-41,7,-49,0,0,0,0,0
1564759236875,-42,7,-49,0,0,0,0,0
1564759236906.25,-44,7,-48,0,0,0,0,0
1564759236937.5,-45,7,-47,0,0,0,0,0
1564759236968.75,-47,7,-47,0,0,0,0,0
1564759237000,-48,8,-47,0,0,0,0,0
1564759237031.25,-47,8,-47,0,0,0,0,0
1564759237062.5,-47,9,-47,0,0,0,0,0
1564759237093.75,-46,9,-46,0,0,0,0,0
1564759237125,-45,9,-46,0,0,0,0,0
1564759237156.25,-44,9,-45,0,0,0,0,0
1564759237187.5,-42,9,-44,0,0,0,0,0
1564759237218.75,-42,9,-44,0,0,0,0,0
1564759237250,-42,11,-45,0,0,0,0,0
1564759237281.25,-43,11,-46,0,0,0,0,0
1564759237312.5,-45,11,-47,0,0,0,0,0
1564759237343.75,-45,12,-47,0,0,0,0,0
1564759237375,-46,12,-48,0,0,0,0,0
1564759237406.25,-45,12,-47,0,0,0,0,0
1564759237437.5,-45,13,-45,0,0,0,0,0
1564759237468.75,-45,13,-45,0,0,0,0,0
1564759237500,-45,12,-45,0,0,0,0,0
1564759237531.25,-45,14,-44,0,0,0,0,0
1564759237562.5,-44,14,-44,0,0,0,0,0
1564759237593.75,-44,14,-44,0,0,0,0,0
1564759237625,-43,14,-44,0,0,0,0,0
1564759237656.25,-43,14,-44,0,0,0,0,0
1564759237687.5,-45,14,-44,0,0,0,0,0
1564759237718.75,-45,14,-45,0,0,0,0,0
1564759237750,-46,14,-46,0,0,0,0,0
1564759237781.25,-46,14,-46,0,0,0,0,0
1564759237812.5,-46,14,-47,0,0,0,0,0
1564759237843.75,-45,15,-48,0,0,0,0,0
1564759237875,-44,15,-48,0,0,0,0,0
1564759237906.25,-42,15,-48,0,0,0,0,0
1564759237937.5,-41,16,-48,0,0,0,0,0
1564759237968.75,-41,15,-48,0,0,0,0,0
1564759238000,-41,15,-48,0,0,0,0,0
1564759238031.25,-41,15,-47,0,0,0,0,0
1564759238062.5,-40,15,-48,0,0,0,0,0
1564759238093.75,-40,15,-48,0,0,0,0,0
1564759238125,-39,15,-47,0,0,0,0,0
1564759238156.25,-38,15,-49,0,0,0,0,0
1564759238187.5,-38,15,-49,0,0,0,0,0
1564759238218.75,-39,15,-51,0,0,0,0,0
1564759238250,-40,16,-51,0,0,0,0,0
1564759238281.25,-41,14,-53,0,0,0,0,0
1564759238312.5,-43,15,-55,0,0,0,0,0
1564759238343.75,-49,16,-52,0,0,0,0,0
1564759238375,-50,15,-55,0,0,0,0,0
1564759238406.25,-46,12,-67,0,0,0,0,0
1564759238437.5,-52,13,-60,0,0,0,0,0
1564759238468.75,-55,9,-52,0,0,0,0,0
1564759238500,-53,4,-43,0,0,0,0,0
1564759238531.25,-54,4,-40,0,0,0,0,0
1564759238562.5,-55,6,-38,0,0,0,0,0
1564759238593.75,-55,6,-35,0,0,0,0,0
1564759238625,-52,5,-33,0,0,0,0,0
1564759238656.25,-48,5,-32,0,0,0,0,0
1564759238687.5,-45,5,-29,0,0,0,0,0
1564759238718.75,-44,5,-25,0,0,0,0,0
1564759238750,-40,0,-22,0,0,0,0,0
1564759238781.25,-40,-2,-29,0,0,0,0,0
1564759238812.5,-44,2,-34,0,0,0,0,0
1564759238843.75,-50,4,-31,0,0,0,0,0
1564759238875,-42,0,-37,0,0,0,0,0
1564759238906.25,-42,1,-40,0,0,0,0,0
1564759238937.5,-50,2,-43,0,0,0,0,0
1564759238968.75,-51,-1,-43,0,0,0,0,0
1564759239000,-45,-10,-52,0,0,0,0,0
1564759239031.25,-44,-8,-56,0,0,0,0,0
1564759239062.5,-45,-7,-54,0,0,0,0,0
1564759239093.75,-43,-6,-53,0,0,0,0,0
1564759239125,-42,-4,-52,0,0,0,0,0
1564759239156.25,-40,-2,-53,0,0,0,0,0
1564759239187.5,-42,-1,-52,0,0,0,0,0
1564759239218.75,-42,2,-48,0,0,0,0,0
1564759239250,-41,2,-46,0,0,0,0,0
1564759239281.25,-40,2,-45,0,0,0,0,0
1564759239312.5,-41,1,-45,0,0,0,0,0
1564759239343.75,-47,0,-50,0,0,0,0,0
1564759239375,-50,2,-54,0,0,0,0,0
1564759239406.25,-54,5,-56,0,0,0,0,0
1564759239437.5,-54,5,-55,0,0,0,0,0
1564759239468.75,-47,6,-54,0,0,0,0,0
1564759239500,-44,7,-53,0,0,0,0,0
1564759239531.25,-43,8,-48,0,0,0,0,0
1564759239562.5,-42,7,-47,0,0,0,0,0
1564759239593.75,-41,9,-50,0,0,0,0,0
1564759239625,-39,12,-51,0,0,0,0,0
1564759239656.25,-38,18,-48,0,0,0,0,0
1564759239687.5,-35,24,-47,0,0,0,0,0
1564759239718.75,-35,26,-47,0,0,0,0,0
1564759239750,-39,26,-45,0,0,0,0,0
1564759239781.25,-40,24,-44,0,0,0,0,0
1564759239812.5,-40,21,-41,0,0,0,0,0
1564759239843.75,-40,19,-41,0,0,0,0,0
1564759239875,-40,17,-40,0,0,0,0,0
1564759239906.25,-40,16,-41,0,0,0,0,0
1564759239937.5,-41,15,-45,0,0,0,0,0
1564759239968.75,-42,15,-45,0,0,0,0,0
1564759240000,-44,16,-47,0,0,0,0,0
1564759240031.25,-46,18,-48,0,0,0,0,0
1564759240062.5,-48,21,-47,0,0,0,0,0
1564759240093.75,-48,21,-48,0,0,0,0,0
1564759240125,-47,17,-55,0,0,0,0,0
1564759240156.25,-45,16,-56,0,0,0,0,0
1564759240187.5,-46,16,-51,0,0,0,0,0
1564759240218.75,-45,15,-50,0,0,0,0,0
1564759240250,-47,13,-48,0,0,0,0,0
1564759240281.25,-50,11,-46,0,0,0,0,0
1564759240312.5,-51,9,-44,0,0,0,0,0
1564759240343.75,-45,6,-41,0,0,0,0,0
1564759240375,-42,2,-44,0,0,0,0,0
1564759240406.25,-39,2,-48,0,0,0,0,0
1564759240437.5,-39,3,-50,0,0,0,0,0
1564759240468.75,-38,8,-51,0,0,0,0,0
1564759240500,-37,8,-51,0,0,0,0,0
1564759240531.25,-37,8,-46,0,0,0,0,0
1564759240562.5,-37,8,-45,0,0,0,0,0
1564759240593.75,-37,9,-43,0,0,0,0,0
1564759240625,-36,8,-43,0,0,0,0,0
1564759240656.25,-37,9,-47,0,0,0,0,0
1564759240687.5,-39,9,-48,0,0,0,0,0
1564759240718.75,-44,10,-45,0,0,0,0,0
1564759240750,-45,10,-44,0,0,0,0,0
1564759240781.25,-46,8,-45,0,0,0,0,0
1564759240812.5,-45,6,-46,0,0,0,0,0
1564759240843.75,-45,3,-49,0,0,0,0,0
1564759240875,-47,3,-50,0,0,0,0,0
1564759240906.25,-50,2,-50,0,0,0,0,0
1564759240937.5,-44,0,-48,0,0,0,0,0
1564759240968.75,-43,-1,-48,0,0,0,0,0
1564759241000,-43,-2,-48,0,0,0,0,0
1564759241031.25,-41,-1,-48,0,0,0,0,0
1564759241062.5,-38,-2,-47,0,0,0,0,0
1564759241093.75,-39,-3,-47,0,0,0,0,0
1564759241125,-40,-2,-52,0,0,0,0,0
1564759241156.25,-41,0,-56,0,0,0,0,0
1564759241187.5,-47,4,-57,0,0,0,0,0
1564759241218.75,-47,4,-56,0,0,0,0,0
1564759241250,-46,4,-53,0,0,0,0,0
1564759241281.25,-46,3,-49,0,0,0,0,0
1564759241312.5,-43,-4,-43,0,0,0,0,0
1564759241343.75,-40,-6,-42,0,0,0,0,0
1564759241375,-37,-9,-42,0,0,0,0,0
1564759241406.25,-36,-10,-44,0,0,0,0,0
1564759241437.5,-36,-9,-54,0,0,0,0,0
1564759241468.75,-38,-7,-58,0,0,0,0,0
1564759241500,-43,-4,-60,0,0,0,0,0
1564759241531.25,-43,0,-59,0,0,0,0,0
1564759241562.5,-43,2,-57,0,0,0,0,0
1564759241593.75,-42,5,-53,0,0,0,0,0
1564759241625,-43,7,-52,0,0,0,0,0
1564759241656.25,-46,10,-49,0,0,0,0,0
1564759241687.5,-47,10,-49,0,0,0,0,0
1564759241718.75,-48,11,-49,0,0,0,0,0
1564759241750,-49,12,-50,0,0,0,0,0
1564759241781.25,-47,16,-49,0,0,0,0,0
1564759241812.5,-46,17,-49,0,0,0,0,0
1564759241843.75,-42,19,-47,0,0,0,0,0
1564759241875,-39,19,-46,0,0,0,0,0
1564759241906.25,-38,18,-45,0,0,0,0,0
1564759241937.5,-39,18,-45,0,0,0,0,0
1564759241968.75,-39,16,-44,0,0,0,0,0
1564759242000,-42,14,-43,0,0,0,0,0
1564759242031.25,-43,13,-43,0,0,0,0,0
1564759242062.5,-44,12,-43,0,0,0,0,0
1564759242093.75,-46,11,-43,0,0,0,0,0
1564759242125,-47,11,-44,0,0,0,0,0
1564759242156.25,-48,11,-46,0,0,0,0,0
1564759242187.5,-51,11,-46,0,0,0,0,0
1564759242218.75,-52,11,-46,0,0,0,0,0
1564759242250,-48,9,-48,0,0,0,0,0
1564759242281.25,-46,9,-47,0,0,0,0,0
1564759242312.5,-44,7,-47,0,0,0,0,0
1564759242343.75,-43,6,-47,0,0,0,0,0
1564759242375,-43,4,-49,0,0,0,0,0
1564759242406.25,-42,3,-52,0,0,0,0,0
1564759242437.5,-40,4,-57,0,0,0,0,0
1564759242468.75,-38,5,-57,0,0,0,0,0
1564759242500,-38,4,-56,0,0,0,0,0
1564759242531.25,-37,4,-57,0,0,0,0,0
1564759242562.5,-34,3,-58,0,0,0,0,0
1564759242593.75,-34,3,-57,0,0,0,0,0
1564759242625,-34,3,-55,0,0,0,0,0
1564759242656.25,-34,3,-54,0,0,0,0,0
1564759242687.5,-41,5,-52,0,0,0,0,0
1564759242718.75,-45,6,-48,0,0,0,0,0
1564759242750,-44,5,-46,0,0,0,0,0
1564759242781.25,-39,4,-49,0,0,0,0,0
1564759242812.5,-36,3,-51,0,0,0,0,0
1564759242843.75,-35,0,-54,0,0,0,0,0
1564759242875,-36,-1,-56,0,0,0,0,0
1564759242906.25,-34,-2,-60,0,0,0,0,0
1564759242937.5,-32,0,-58,0,0,0,0,0
1564759242968.75,-30,0,-50,0,0,0,0,0
1564759243000,-28,0,-48,0,0,0,0,0
1564759243031.25,-34,0,-48,0,0,0,0,0
1564759243062.5,-46,-1,-52,0,0,0,0,0
1564759243093.75,-47,0,-51,0,0,0,0,0
1564759243125,-44,0,-52,0,0,0,0,0
1564759243156.25,-39,0,-56,0,0,0,0,0
1564759243187.5,-37,0,-57,0,0,0,0,0
1564759243218.75,-36,0,-54,0,0,0,0,0
1564759243250,-36,0,-53,0,0,0,0,0
1564759243281.25,-37,-1,-51,0,0,0,0,0
1564759243312.5,-36,-2,-51,0,0,0,0,0
1564759243343.75,-36,-2,-54,0,0,0,0,0
1564759243375,-36,-1,-55,0,0,0,0,0
1564759243406.25,-44,1,-52,0,0,0,0,0
1564759243437.5,-48,0,-48,0,0,0,0,0
1564759243468.75,-47,-1,-46,0,0,0,0,0
1564759243500,-44,-5,-44,0,0,0,0,0
1564759243531.25,-41,-6,-44,0,0,0,0,0
1564759243562.5,-40,-8,-47,0,0,0,0,0
1564759243593.75,-42,-8,-49,0,0,0,0,0
1564759243625,-43,-5,-53,0,0,0,0,0
1564759243656.25,-44,-3,-54,0,0,0,0,0
1564759243687.5,-45,0,-53,0,0,0,0,0
1564759243718.75,-44,2,-51,0,0,0,0,0
1564759243750,-42,3,-47,0,0,0,0,0
1564759243781.25,-40,2,-46,0,0,0,0,0
1564759243812.5,-39,-1,-43,0,0,0,0,0
1564759243843.75,-41,-2,-42,0,0,0,0,0
1564759243875,-43,-6,-45,0,0,0,0,0
1564759243906.25,-41,-6,-46,0,0,0,0,0
1564759243937.5,-39,-7,-53,0,0,0,0,0
1564759243968.75,-40,-8,-57,0,0,0,0,0
1564759244000,-41,-7,-59,0,0,0,0,0
1564759244031.25,-42,-7,-57,0,0,0,0,0
1564759244062.5,-41,-7,-55,0,0,0,0,0
1564759244093.75,-39,-5,-53,0,0,0,0,0
1564759244125,-38,-4,-52,0,0,0,0,0
1564759244156.25,-37,-1,-48,0,0,0,0,0
1564759244187.5,-37,0,-47,0,0,0,0,0
1564759244218.75,-40,0,-46,0,0,0,0,0
1564759244250,-42,0,-46,0,0,0,0,0
1564759244281.25,-42,-1,-48,0,0,0,0,0
1564759244312.5,-41,-2,-49,0,0,0,0,0
1564759244343.75,-42,-1,-52,0,0,0,0,0
1564759244375,-43,-1,-52,0,0,0,0,0
1564759244406.25,-42,-1,-52,0,0,0,0,0
1564759244437.5,-41,-1,-52,0,0,0,0,0
1564759244468.75,-41,0,-50,0,0,0,0,0
1564759244500,-41,1,-49,0,0,0,0,0
1564759244531.25,-41,2,-48,0,0,0,0,0
1564759244562.5,-41,2,-48,0,0,0,0,0
1564759244593.75,-40,1,-48,0,0,0,0,0
1564759244625,-40,0,-48,0,0,0,0,0
1564759244656.25,-40,-3,-49,0,0,0,0,0
1564759244687.5,-42,-4,-50,0,0,0,0,0
1564759244718.75,-42,-4,-52,0,0,0,0,0
1564759244750,-40,-4,-54,0,0,0,0,0
1564759244781.25,-39,-3,-55,0,0,0,0,0
1564759244812.5,-38,-1,-55,0,0,0,0,0
1564759244843.75,-38,0,-53,0,0,0,0,0
1564759244875,-37,-1,-50,0,0,0,0,0
1564759244906.25,-38,-3,-50,0,0,0,0,0
1564759244937.5,-41,-4,-52,0,0,0,0,0
1564759244968.75,-41,-4,-54,0,0,0,0,0
1564759245000,-41,-1,-55,0,0,0,0,0
1564759245031.25,-39,-1,-54,0,0,0,0,0
1564759245062.5,-36,-1,-52,0,0,0,0,0
1564759245093.75,-36,0,-53,0,0,0,0,0
1564759245125,-39,1,-52,0,0,0,0,0
1564759245156.25,-40,1,-51,0,0,0,0,0
1564759245187.5,-39,-1,-49,0,0,0,0,0
1564759245218.75,-39,-2,-49,0,0,0,0,0
1564759245250,-37,-2,-51,0,0,0,0,0
1564759245281.25,-37,-1,-52,0,0,0,0,0
1564759245312.5,-39,0,-53,0,0,0,0,0
1564759245343.75,-42,0,-54,0,0,0,0,0
1564759245375,-42,-1,-53,0,0,0,0,0
1564759245406.25,-39,-4,-52,0,0,0,0,0
1564759245437.5,-37,-6,-53,0,0,0,0,0
1564759245468.75,-35,-8,-54,0,0,0,0,0
1564759245500,-35,-8,-54,0,0,0,0,0
1564759245531.25,-36,-7,-56,0,0,0,0,0
1564759245562.5,-39,-6,-56,0,0,0,0,0
1564759245593.75,-41,-5,-55,0,0,0,0,0
1564759245625,-41,-5,-54,0,0,0,0,0
1564759245656.25,-37,-6,-52,0,0,0,0,0
1564759245687.5,-35,-5,-52,0,0,0,0,0
1564759245718.75,-34,-3,-53,0,0,0,0,0
1564759245750,-35,-2,-53,0,0,0,0,0
1564759245781.25,-39,1,-53,0,0,0,0,0
1564759245812.5,-40,3,-52,0,0,0,0,0
1564759245843.75,-40,3,-51,0,0,0,0,0
1564759245875,-38,3,-51,0,0,0,0,0
1564759245906.25,-37,2,-51,0,0,0,0,0
1564759245937.5,-38,2,-51,0,0,0,0,0
1564759245968.75,-39,2,-52,0,0,0,0,0
1564759246000,-41,1,-51,0,0,0,0,0
1564759246031.25,-41,1,-51,0,0,0,0,0
1564759246062.5,-39,0,-51,0,0,0,0,0
1564759246093.75,-39,0,-52,0,0,0,0,0
1564759246125,-39,1,-50,0,0,0,0,0
1564759246156.25,-39,2,-49,0,0,0,0,0
1564759246187.5,-39,2,-50,0,0,0,0,0
1564759246218.75,-38,1,-50,0,0,0,0,0
1564759246250,-37,0,-50,0,0,0,0,0
1564759246281.25,-37,-1,-52,0,0,0,0,0
1564759246312.5,-37,-2,-55,0,0,0,0,0
1564759246343.75,-38,-3,-57,0,0,0,0,0
1564759246375,-41,-3,-58,0,0,0,0,0
1564759246406.25,-42,-2,-58,0,0,0,0,0
1564759246437.5,-41,-2,-56,0,0,0,0,0
1564759246468.75,-39,-2,-54,0,0,0,0,0
1564759246500,-36,-2,-52,0,0,0,0,0
1564759246531.25,-35,-2,-51,0,0,0,0,0
1564759246562.5,-35,-3,-51,0,0,0,0,0
1564759246593.75,-34,-4,-53,0,0,0,0,0
1564759246625,-35,-4,-54,0,0,0,0,0
1564759246656.25,-37,-4,-55,0,0,0,0,0
1564759246687.5,-37,-3,-54,0,0,0,0,0
1564759246718.75,-38,-3,-53,0,0,0,0,0
1564759246750,-38,-3,-52,0,0,0,0,0
1564759246781.25,-37,-4,-52,0,0,0,0,0
1564759246812.5,-36,-5,-52,0,0,0,0,0
1564759246843.75,-36,-6,-53,0,0,0,0,0
1564759246875,-36,-6,-53,0,0,0,0,0
1564759246906.25,-37,-6,-54,0,0,0,0,0
1564759246937.5,-38,-6,-55,0,0,0,0,0
1564759246968.75,-37,-5,-54,0,0,0,0,0
1564759247000,-38,-5,-54,0,0,0,0,0
1564759247031.25,-37,-4,-54,0,0,0,0,0
1564759247062.5,-37,-4,-54,0,0,0,0,0
1564759247093.75,-36,-4,-54,0,0,0,0,0
1564759247125,-36,-4,-54,0,0,0,0,0
1564759247156.25,-36,-3,-54,0,0,0,0,0
1564759247187.5,-37,-3,-53,0,0,0,0,0
1564759247218.75,-37,-2,-53,0,0,0,0,0
1564759247250,-38,-3,-52,0,0,0,0,0
1564759247281.25,-37,-4,-53,0,0,0,0,0
1564759247312.5,-36,-4,-54,0,0,0,0,0
1564759247343.75,-36,-4,-54,0,0,0,0,0
1564759247375,-35,-4,-54,0,0,0,0,0
1564759247406.25,-35,-4,-53,0,0,0,0,0
1564759247437.5,-35,-4,-53,0,0,0,0,0
1564759247468.75,-34,-4,-53,0,0,0,0,0
1564759247500,-35,-4,-54,0,0,0,0,0
1564759247531.25,-35,-5,-55,0,0,0,0,0
1564759247562.5,-37,-4,-55,0,0,0,0,0
1564759247593.75,-38,-4,-55,0,0,0,0,0
1564759247625,-37,-5,-55,0,0,0,0,0
1564759247656.25,-37,-5,-55,0,0,0,0,0
1564759247687.5,-35,-6,-54,0,0,0,0,0
1564759247718.75,-33,-7,-54,0,0,0,0,0
1564759247750,-33,-8,-54,0,0,0,0,0
1564759247781.25,-34,-10,-55,0,0,0,0,0
1564759247812.5,-34,-10,-54,0,0,0,0,0
1564759247843.75,-35,-11,-54,0,0,0,0,0
1564759247875,-35,-11,-55,0,0,0,0,0
1564759247906.25,-36,-9,-57,0,0,0,0,0
1564759247937.5,-36,-8,-58,0,0,0,0,0
1564759247968.75,-37,-5,-60,0,0,0,0,0
1564759248000,-38,-3,-59,0,0,0,0,0
1564759248031.25,-38,0,-55,0,0,0,0,0
1564759248062.5,-38,0,-53,0,0,0,0,0
1564759248093.75,-36,0,-50,0,0,0,0,0
1564759248125,-35,-1,-49,0,0,0,0,0
1564759248156.25,-34,-4,-49,0,0,0,0,0
1564759248187.5,-34,-4,-51,0,0,0,0,0
1564759248218.75,-36,-6,-54,0,0,0,0,0
1564759248250,-38,-5,-55,0,0,0,0,0
1564759248281.25,-42,-4,-56,0,0,0,0,0
1564759248312.5,-45,-5,-58,0,0,0,0,0
1564759248343.75,-39,-5,-56,0,0,0,0,0
1564759248375,-38,-4,-55,0,0,0,0,0
1564759248406.25,-37,-4,-54,0,0,0,0,0
1564759248437.5,-36,-3,-49,0,0,0,0,0
1564759248468.75,-36,-3,-48,0,0,0,0,0
1564759248500,-42,-2,-48,0,0,0,0,0
1564759248531.25,-44,-2,-48,0,0,0,0,0
1564759248562.5,-40,-3,-48,0,0,0,0,0
1564759248593.75,-37,-3,-48,0,0,0,0,0
1564759248625,-36,-1,-50,0,0,0,0,0
1564759248656.25,-36,-1,-50,0,0,0,0,0
1564759248687.5,-39,2,-49,0,0,0,0,0
1564759248718.75,-41,3,-49,0,0,0,0,0
1564759248750,-43,7,-48,0,0,0,0,0
1564759248781.25,-42,8,-46,0,0,0,0,0
1564759248812.5,-38,8,-44,0,0,0,0,0
1564759248843.75,-38,8,-45,0,0,0,0,0
1564759248875,-42,7,-50,0,0,0,0,0
1564759248906.25,-45,7,-53,0,0,0,0,0
1564759248937.5,-49,9,-56,0,0,0,0,0
1564759248968.75,-47,9,-56,0,0,0,0,0
1564759249000,-45,9,-51,0,0,0,0,0
1564759249031.25,-41,7,-47,0,0,0,0,0
1564759249062.5,-40,6,-45,0,0,0,0,0
1564759249093.75,-38,4,-46,0,0,0,0,0
1564759249125,-39,4,-48,0,0,0,0,0
1564759249156.25,-40,4,-52,0,0,0,0,0
1564759249187.5,-41,5,-53,0,0,0,0,0
1564759249218.75,-41,6,-51,0,0,0,0,0
1564759249250,-40,5,-48,0,0,0,0,0
1564759249281.25,-39,3,-45,0,0,0,0,0
1564759249312.5,-39,0,-46,0,0,0,0,0
1564759249343.75,-40,-3,-50,0,0,0,0,0
1564759249375,-40,-4,-52,0,0,0,0,0
1564759249406.25,-41,-5,-55,0,0,0,0,0
1564759249437.5,-42,-4,-56,0,0,0,0,0
1564759249468.75,-39,-4,-56,0,0,0,0,0
1564759249500,-37,-4,-55,0,0,0,0,0
1564759249531.25,-34,-4,-53,0,0,0,0,0
1564759249562.5,-34,-4,-52,0,0,0,0,0
1564759249593.75,-36,-4,-51,0,0,0,0,0
1564759249625,-37,-4,-52,0,0,0,0,0
1564759249656.25,-39,-3,-53,0,0,0,0,0
1564759249687.5,-41,-1,-56,0,0,0,0,0
1564759249718.75,-41,0,-57,0,0,0,0,0
1564759249750,-40,1,-56,0,0,0,0,0
1564759249781.25,-39,0,-54,0,0,0,0,0
1564759249812.5,-39,-2,-51,0,0,0,0,0
1564759249843.75,-39,-3,-51,0,0,0,0,0
1564759249875,-39,-4,-49,0,0,0,0,0
1564759249906.25,-39,-4,-49,0,0,0,0,0
1564759249937.5,-39,-5,-50,0,0,0,0,0
1564759249968.75,-40,-4,-50,0,0,0,0,0
1564759250000,-41,-4,-51,0,0,0,0,0
1564759250031.25,-41,-4,-51,0,0,0,0,0
1564759250062.5,-41,-4,-51,0,0,0,0,0
1564759250093.75,-41,-4,-51,0,0,0,0,0
1564759250125,-41,-4,-51,0,0,0,0,0
1564759250156.25,-41,-4,-51,0,0,0,0,0
1564759250187.5,-41,-4,-51,0,0,0,0,0
1564759250218.75,-41,-4,-51,0,0,0,0,0
1564759250250,-41,-3,-51,0,0,0,0,0
1564759250281.25,-41,-3,-51,0,0,0,0,0
1564759250312.5,-41,-2,-50,0,0,0,0,0
1564759250343.75,-41,-1,-50,0,0,0,0,0
1564759250375,-41,-1,-50,0,0,0,0,0
1564759250406.25,-40,-1,-48,0,0,0,0,0
1564759250437.5,-39,-2,-48,0,0,0,0,0
1564759250468.75,-37,-3,-47,0,0,0,0,0
1564759250500,-37,-4,-47,0,0,0,0,0
1564759250531.25,-37,-5,-47,0,0,0,0,0
1564759250562.5,-39,-6,-47,0,0,0,0,0
1564759250593.75,-38,-7,-44,0,0,0,0,0
1564759250625,-39,-9,-45,0,0,0,0,0
1564759250656.25,-40,-11,-51,0,0,0,0,0
1564759250687.5,-42,-11,-57,0,0,0,0,0
1564759250718.75,-45,-7,-58,0,0,0,0,0
1564759250750,-46,-5,-57,0,0,0,0,0
1564759250781.25,-43,-3,-55,0,0,0,0,0
1564759250812.5,-43,-2,-54,0,0,0,0,0
1564759250843.75,-44,-1,-49,0,0,0,0,0
1564759250875,-43,-2,-50,0,0,0,0,0
1564759250906.25,-43,-2,-50,0,0,0,0,0
1564759250937.5,-41,-2,-52,0,0,0,0,0
1564759250968.75,-41,-1,-55,0,0,0,0,0
1564759251000,-43,4,-59,0,0,0,0,0
1564759251031.25,-44,6,-56,0,0,0,0,0
1564759251062.5,-45,9,-53,0,0,0,0,0
1564759251093.75,-44,9,-49,0,0,0,0,0
1564759251125,-47,9,-46,0,0,0,0,0
1564759251156.25,-46,8,-46,0,0,0,0,0
1564759251187.5,-45,9,-45,0,0,0,0,0
1564759251218.75,-43,9,-45,0,0,0,0,0
1564759251250,-43,10,-50,0,0,0,0,0
1564759251281.25,-43,11,-50,0,0,0,0,0
1564759251312.5,-42,11,-44,0,0,0,0,0
1564759251343.75,-42,11,-42,0,0,0,0,0
1564759251375,-39,10,-40,0,0,0,0,0
1564759251406.25,-40,10,-39,0,0,0,0,0
1564759251437.5,-40,9,-42,0,0,0,0,0
1564759251468.75,-41,10,-43,0,0,0,0,0
1564759251500,-42,10,-42,0,0,0,0,0
1564759251531.25,-43,11,-41,0,0,0,0,0
1564759251562.5,-44,12,-41,0,0,0,0,0
1564759251593.75,-46,10,-40,0,0,0,0,0
1564759251625,-45,9,-39,0,0,0,0,0
1564759251656.25,-43,7,-39,0,0,0,0,0
1564759251687.5,-43,6,-38,0,0,0,0,0
1564759251718.75,-46,6,-42,0,0,0,0,0
1564759251750,-47,6,-44,0,0,0,0,0
1564759251781.25,-46,7,-46,0,0,0,0,0
1564759251812.5,-48,7,-48,0,0,0,0,0
1564759251843.75,-52,10,-53,0,0,0,0,0
1564759251875,-55,8,-53,0,0,0,0,0
1564759251906.25,-51,7,-53,0,0,0,0,0
1564759251937.5,-47,8,-51,0,0,0,0,0
1564759251968.75,-41,9,-51,0,0,0,0,0
1564759252000,-34,14,-53,0,0,0,0,0
1564759252031.25,-32,16,-51,0,0,0,0,0
1564759252062.5,-30,18,-47,0,0,0,0,0
1564759252093.75,-27,18,-47,0,0,0,0,0
1564759252125,-30,20,-52,0,0,0,0,0
1564759252156.25,-31,20,-52,0,0,0,0,0
1564759252187.5,-27,20,-47,0,0,0,0,0
1564759252218.75,-25,20,-47,0,0,0,0,0
1564759252250,-32,21,-53,0,0,0,0,0
1564759252281.25,-31,22,-52,0,0,0,0,0
1564759252312.5,-30,24,-54,0,0,0,0,0
1564759252343.75,-31,24,-53,0,0,0,0,0
1564759252375,-32,23,-52,0,0,0,0,0
1564759252406.25,-30,22,-54,0,0,0,0,0
1564759252437.5,-27,13,-54,0,0,0,0,0
1564759252468.75,-30,10,-56,0,0,0,0,0
1564759252500,-43,16,-67,0,0,0,0,0
1564759252531.25,-43,20,-68,0,0,0,0,0
1564759252562.5,-41,27,-69,0,0,0,0,0
1564759252593.75,-44,30,-69,0,0,0,0,0
1564759252625,-43,27,-63,0,0,0,0,0
1564759252656.25,-44,24,-59,0,0,0,0,0
1564759252687.5,-50,15,-52,0,0,0,0,0
1564759252718.75,-52,13,-54,0,0,0,0,0
1564759252750,-36,33,-47,0,0,0,0,0
1564759252781.25,-39,46,-41,0,0,0,0,0
1564759252812.5,-30,50,-35,0,0,0,0,0
1564759252843.75,-6,66,-22,0,0,0,0,0
1564759252875,6,75,-11,0,0,0,0,0
1564759252906.25,4,74,-40,0,0,0,0,0
1564759252937.5,9,73,-26,0,0,0,0,0
1564759252968.75,1,72,-32,0,0,0,0,0
1564759253000,4,65,-39,0,0,0,0,0
1564759253031.25,4,71,-42,0,0,0,0,0
1564759253062.5,-5,70,-37,0,0,0,0,0
1564759253093.75,-4,66,-35,0,0,0,0,0
1564759253125,-30,70,-38,0,0,0,0,0
1564759253156.25,-28,63,-48,0,0,0,0,0
1564759253187.5,-31,71,-47,0,0,0,0,0
1564759253218.75,-51,77,-33,0,0,0,0,0
1564759253250,-51,76,-32,0,0,0,0,0
1564759253281.25,-57,80,-29,0,0,0,0,0
1564759253312.5,-51,72,-29,0,0,0,0,0
1564759253343.75,-60,66,-25,0,0,0,0,0
1564759253375,-51,56,-20,0,0,0,0,0
1564759253406.25,-44,53,-19,0,0,0,0,0
1564759253437.5,-35,47,-21,0,0,0,0,0
1564759253468.75,-30,44,-22,0,0,0,0,0
1564759253500,-18,42,-26,0,0,0,0,0
1564759253531.25,-13,43,-27,0,0,0,0,0
1564759253562.5,-10,43,-27,0,0,0,0,0
1564759253593.75,-12,43,-27,0,0,0,0,0
1564759253625,-19,45,-25,0,0,0,0,0
1564759253656.25,-21,48,-24,0,0,0,0,0
1564759253687.5,-24,55,-19,0,0,0,0,0
1564759253718.75,-25,56,-17,0,0,0,0,0
1564759253750,-22,53,-13,0,0,0,0,0
1564759253781.25,-18,52,-11,0,0,0,0,0
1564759253812.5,-19,54,-11,0,0,0,0,0
1564759253843.75,-20,57,-12,0,0,0,0,0
1564759253875,-29,63,-16,0,0,0,0,0
1564759253906.25,-39,68,-18,0,0,0,0,0
1564759253937.5,-45,70,-15,0,0,0,0,0
1564759253968.75,-33,59,-5,0,0,0,0,0
1564759254000,-31,52,-4,0,0,0,0,0
1564759254031.25,-38,39,-9,0,0,0,0,0
1564759254062.5,-41,34,-12,0,0,0,0,0
1564759254093.75,-51,29,-19,0,0,0,0,0
1564759254125,-56,27,-22,0,0,0,0,0
1564759254156.25,-58,18,-25,0,0,0,0,0
1564759254187.5,-59,15,-26,0,0,0,0,0
1564759254218.75,-64,19,-29,0,0,0,0,0
1564759254250,-68,23,-32,0,0,0,0,0
1564759254281.25,-68,26,-39,0,0,0,0,0
1564759254312.5,-65,24,-41,0,0,0,0,0
1564759254343.75,-62,20,-40,0,0,0,0,0
1564759254375,-60,19,-38,0,0,0,0,0
1564759254406.25,-58,23,-35,0,0,0,0,0
1564759254437.5,-56,25,-34,0,0,0,0,0
1564759254468.75,-53,29,-31,0,0,0,0,0
1564759254500,-51,32,-31,0,0,0,0,0
1564759254531.25,-47,36,-26,0,0,0,0,0
1564759254562.5,-47,39,-19,0,0,0,0,0
1564759254593.75,-56,49,-11,0,0,0,0,0
1564759254625,-44,51,-11,0,0,0,0,0
1564759254656.25,-32,53,-11,0,0,0,0,0
1564759254687.5,-23,58,0,0,0,0,0,0
1564759254718.75,-18,60,9,0,0,0,0,0
1564759254750,-15,71,19,0,0,0,0,0
1564759254781.25,-14,70,20,0,0,0,0,0
1564759254812.5,-15,60,12,0,0,0,0,0
1564759254843.75,-15,57,7,0,0,0,0,0
1564759254875,-19,57,-1,0,0,0,0,0
1564759254906.25,-15,60,0,0,0,0,0,0
1564759254937.5,-22,68,-2,0,0,0,0,0
1564759254968.75,-23,70,-5,0,0,0,0,0
1564759255000,-27,72,-15,0,0,0,0,0
1564759255031.25,-27,72,-18,0,0,0,0,0
1564759255062.5,-27,67,-26,0,0,0,0,0
1564759255093.75,-33,59,-29,0,0,0,0,0
1564759255125,-47,48,-27,0,0,0,0,0
1564759255156.25,-53,45,-23,0,0,0,0,0
1564759255187.5,-58,41,-22,0,0,0,0,0
1564759255218.75,-49,36,-27,0,0,0,0,0
1564759255250,-50,34,-33,0,0,0,0,0
1564759255281.25,-61,37,-41,0,0,0,0,0
1564759255312.5,-59,45,-41,0,0,0,0,0
1564759255343.75,-50,73,-38,0,0,0,0,0
1564759255375,-35,79,-32,0,0,0,0,0
1564759255406.25,-21,91,-5,0,0,0,0,0
1564759255437.5,-23,91,4,0,0,0,0,0
1564759255468.75,-29,87,10,0,0,0,0,0
1564759255500,-42,81,2,0,0,0,0,0
1564759255531.25,-67,75,-13,0,0,0,0,0
1564759255562.5,-82,74,-25,0,0,0,0,0
1564759255593.75,-77,71,-25,0,0,0,0,0
1564759255625,-74,72,-21,0,0,0,0,0
1564759255656.25,-68,79,-7,0,0,0,0,0
1564759255687.5,-68,78,-7,0,0,0,0,0
1564759255718.75,-65,73,-5,0,0,0,0,0
1564759255750,-56,69,1,0,0,0,0,0
1564759255781.25,-30,55,12,0,0,0,0,0
1564759255812.5,-19,46,17,0,0,0,0,0
1564759255843.75,-13,27,26,0,0,0,0,0
1564759255875,-12,13,17,0,0,0,0,0
1564759255906.25,-14,11,20,0,0,0,0,0
1564759255937.5,-16,5,28,0,0,0,0,0
1564759255968.75,-10,3,33,0,0,0,0,0
1564759256000,-4,5,44,0,0,0,0,0
1564759256031.25,-7,7,49,0,0,0,0,0
1564759256062.5,-3,8,57,0,0,0,0,0
1564759256093.75,-3,12,58,0,0,0,0,0
1564759256125,8,17,65,0,0,0,0,0
1564759256156.25,12,16,64,0,0,0,0,0
1564759256187.5,7,16,57,0,0,0,0,0
1564759256218.75,6,15,57,0,0,0,0,0
1564759256250,11,16,59,0,0,0,0,0
1564759256281.25,12,16,60,0,0,0,0,0
1564759256312.5,9,17,59,0,0,0,0,0
1564759256343.75,4,17,55,0,0,0,0,0
1564759256375,3,15,54,0,0,0,0,0
1564759256406.25,4,18,57,0,0,0,0,0
1564759256437.5,5,18,59,0,0,0,0,0
1564759256468.75,7,21,59,0,0,0,0,0
1564759256500,10,22,60,0,0,0,0,0
1564759256531.25,10,21,62,0,0,0,0,0
1564759256562.5,12,25,61,0,0,0,0,0
1564759256593.75,30,45,71,0,0,0,0,0
1564759256625,51,50,81,0,0,0,0,0
1564759256656.25,68,74,83,0,0,0,0,0
1564759256687.5,37,74,62,0,0,0,0,0
1564759256718.75,-32,27,18,0,0,0,0,0
1564759256750,-50,-12,-4,0,0,0,0,0
1564759256781.25,-39,-45,-46,0,0,0,0,0
1564759256812.5,-34,-61,-70,0,0,0,0,0
1564759256843.75,-49,-79,-96,0,0,0,0,0
1564759256875,-61,-61,-78,0,0,0,0,0
1564759256906.25,10,-39,-30,0,0,0,0,0
1564759256937.5,19,-51,-26,0,0,0,0,0
1564759256968.75,-3,-48,-19,0,0,0,0,0
1564759257000,-27,-50,-27,0,0,0,0,0
1564759257031.25,-31,-48,-29,0,0,0,0,0
1564759257062.5,-33,-44,-35,0,0,0,0,0
1564759257093.75,-34,-47,-24,0,0,0,0,0
1564759257125,-29,-47,-15,0,0,0,0,0
1564759257156.25,-21,-47,-18,0,0,0,0,0
1564759257187.5,-24,-51,-27,0,0,0,0,0
1564759257218.75,-29,-54,-25,0,0,0,0,0
1564759257250,-21,-52,-23,0,0,0,0,0
1564759257281.25,-24,-58,-33,0,0,0,0,0
1564759257312.5,-22,-54,-27,0,0,0,0,0
1564759257343.75,-15,-54,-25,0,0,0,0,0
1564759257375,-14,-54,-27,0,0,0,0,0
1564759257406.25,-14,-53,-23,0,0,0,0,0
1564759257437.5,-16,-55,-27,0,0,0,0,0
1564759257468.75,-17,-55,-27,0,0,0,0,0
1564759257500,-20,-56,-23,0,0,0,0,0
1564759257531.25,-21,-56,-23,0,0,0,0,0
1564759257562.5,-20,-56,-21,0,0,0,0,0
1564759257593.75,-19,-54,-16,0,0,0,0,0
1564759257625,-36,-63,-35,0,0,0,0,0
1564759257656.25,-26,-56,-23,0,0,0,0,0
1564759257687.5,-23,-60,-20,0,0,0,0,0
1564759257718.75,-20,-58,-24,0,0,0,0,0
1564759257750,-16,-51,-14,0,0,0,0,0
1564759257781.25,-12,-42,-20,0,0,0,0,0
1564759257812.5,-9,-35,-21,0,0,0,0,0
1564759257843.75,-9,-26,-23,0,0,0,0,0
1564759257875,-7,-24,-26,0,0,0,0,0
1564759257906.25,-8,-22,-23,0,0,0,0,0
1564759257937.5,-21,-12,-4,0,0,0,0,0
1564759257968.75,-55,2,5,0,0,0,0,0
1564759258000,-82,5,-1,0,0,0,0,0
1564759258031.25,-67,0,-22,0,0,0,0,0
1564759258062.5,-71,3,-30,0,0,0,0,0
1564759258093.75,-128,-8,-4,0,0,0,0,0
1564759258125,-128,-16,-16,0,0,0,0,0
1564759258156.25,-60,-14,-22,0,0,0,0,0
1564759258187.5,-37,-14,-9,0,0,0,0,0
1564759258218.75,-39,-9,-9,0,0,0,0,0
1564759258250,-42,-5,-10,0,0,0,0,0
1564759258281.25,-57,-5,-11,0,0,0,0,0
1564759258312.5,-56,-5,-16,0,0,0,0,0
1564759258343.75,-61,-4,-18,0,0,0,0,0
1564759258375,-67,2,-14,0,0,0,0,0
1564759258406.25,-61,3,-9,0,0,0,0,0
1564759258437.5,-50,6,-12,0,0,0,0,0
1564759258468.75,-48,7,-19,0,0,0,0,0
1564759258500,-63,28,-20,0,0,0,0,0
1564759258531.25,-67,32,-24,0,0,0,0,0
1564759258562.5,-74,43,-22,0,0,0,0,0
1564759258593.75,-82,47,-18,0,0,0,0,0
1564759258625,-78,39,-13,0,0,0,0,0
1564759258656.25,-67,33,-12,0,0,0,0,0
1564759258687.5,-53,28,-15,0,0,0,0,0
1564759258718.75,-49,24,-17,0,0,0,0,0
1564759258750,-61,30,-16,0,0,0,0,0
1564759258781.25,-60,32,-10,0,0,0,0,0
1564759258812.5,-51,33,-1,0,0,0,0,0
1564759258843.75,-48,38,3,0,0,0,0,0
1564759258875,-49,29,-3,0,0,0,0,0
1564759258906.25,-50,29,-11,0,0,0,0,0
1564759258937.5,-58,28,-27,0,0,0,0,0
1564759258968.75,-57,35,-27,0,0,0,0,0
1564759259000,-58,37,-25,0,0,0,0,0
1564759259031.25,-57,43,-25,0,0,0,0,0
1564759259062.5,-53,44,-23,0,0,0,0,0
1564759259093.75,-48,42,-18,0,0,0,0,0
1564759259125,-46,40,-17,0,0,0,0,0
1564759259156.25,-47,38,-16,0,0,0,0,0
1564759259187.5,-49,39,-15,0,0,0,0,0
1564759259218.75,-46,43,-17,0,0,0,0,0
1564759259250,-44,47,-17,0,0,0,0,0
1564759259281.25,-52,54,-16,0,0,0,0,0
1564759259312.5,-49,56,-9,0,0,0,0,0
1564759259343.75,-45,54,-5,0,0,0,0,0
1564759259375,-46,51,-5,0,0,0,0,0
1564759259406.25,-39,49,-4,0,0,0,0,0
1564759259437.5,-34,49,-6,0,0,0,0,0
1564759259468.75,-33,51,-10,0,0,0,0,0
1564759259500,-34,52,-12,0,0,0,0,0
1564759259531.25,-32,54,-12,0,0,0,0,0
1564759259562.5,-33,54,-8,0,0,0,0,0
1564759259593.75,-33,55,-7,0,0,0,0,0
1564759259625,-31,52,-5,0,0,0,0,0
1564759259656.25,-30,51,-4,0,0,0,0,0
1564759259687.5,-28,50,-4,0,0,0,0,0
1564759259718.75,-29,52,-4,0,0,0,0,0
1564759259750,-31,50,0,0,0,0,0,0
1564759259781.25,-30,53,-1,0,0,0,0,0
1564759259812.5,-35,56,-2,0,0,0,0,0
1564759259843.75,-38,52,-3,0,0,0,0,0
1564759259875,-36,43,-5,0,0,0,0,0
1564759259906.25,-34,40,-5,0,0,0,0,0
1564759259937.5,-36,39,-1,0,0,0,0,0
1564759259968.75,-36,42,0,0,0,0,0,0
1564759260000,-32,49,2,0,0,0,0,0
1564759260031.25,-32,55,4,0,0,0,0,0
1564759260062.5,-32,70,4,0,0,0,0,0
1564759260093.75,-33,70,-1,0,0,0,0,0
1564759260125,-41,67,-3,0,0,0,0,0
1564759260156.25,-42,64,1,0,0,0,0,0
1564759260187.5,-36,61,0,0,0,0,0,0
1564759260218.75,-35,60,-3,0,0,0,0,0
1564759260250,-35,62,-5,0,0,0,0,0
1564759260281.25,-32,62,-11,0,0,0,0,0
1564759260312.5,-32,59,-13,0,0,0,0,0
1564759260343.75,-33,56,-14,0,0,0,0,0
1564759260375,-30,57,-14,0,0,0,0,0
1564759260406.25,-28,54,-20,0,0,0,0,0
1564759260437.5,-31,51,-21,0,0,0,0,0
1564759260468.75,-34,47,-19,0,0,0,0,0
1564759260500,-33,45,-19,0,0,0,0,0
1564759260531.25,-29,44,-16,0,0,0,0,0
1564759260562.5,-30,45,-17,0,0,0,0,0
1564759260593.75,-33,47,-21,0,0,0,0,0
1564759260625,-35,49,-21,0,0,0,0,0
1564759260656.25,-36,58,-21,0,0,0,0,0
1564759260687.5,-38,64,-20,0,0,0,0,0
1564759260718.75,-37,71,-14,0,0,0,0,0
1564759260750,-34,70,-13,0,0,0,0,0
1564759260781.25,-25,68,-7,0,0,0,0,0
1564759260812.5,-24,64,-4,0,0,0,0,0
1564759260843.75,-23,63,-5,0,0,0,0,0
1564759260875,-23,62,-10,0,0,0,0,0
1564759260906.25,-25,62,-12,0,0,0,0,0
1564759260937.5,-28,57,-13,0,0,0,0,0
1564759260968.75,-28,56,-12,0,0,0,0,0
1564759261000,-30,56,-9,0,0,0,0,0
1564759261031.25,-29,58,-9,0,0,0,0,0
1564759261062.5,-31,62,-10,0,0,0,0,0
1564759261093.75,-31,65,-11,0,0,0,0,0
1564759261125,-30,67,-9,0,0,0,0,0
1564759261156.25,-30,66,-6,0,0,0,0,0
1564759261187.5,-29,63,-1,0,0,0,0,0
1564759261218.75,-26,61,1,0,0,0,0,0
1564759261250,-21,56,2,0,0,0,0,0
1564759261281.25,-21,54,2,0,0,0,0,0
1564759261312.5,-21,52,0,0,0,0,0,0
1564759261343.75,-23,51,-1,0,0,0,0,0
1564759261375,-26,50,-4,0,0,0,0,0
1564759261406.25,-27,51,-7,0,0,0,0,0
1564759261437.5,-30,53,-8,0,0,0,0,0
1564759261468.75,-32,56,-7,0,0,0,0,0
1564759261500,-30,57,-7,0,0,0,0,0
1564759261531.25,-27,59,-6,0,0,0,0,0
1564759261562.5,-27,59,-5,0,0,0,0,0
1564759261593.75,-25,58,-3,0,0,0,0,0
1564759261625,-25,58,-3,0,0,0,0,0
1564759261656.25,-27,61,-4,0,0,0,0,0
1564759261687.5,-27,62,-4,0,0,0,0,0
1564759261718.75,-27,66,-6,0,0,0,0,0
1564759261750,-29,66,-6,0,0,0,0,0
1564759261781.25,-30,62,-9,0,0,0,0,0
1564759261812.5,-28,60,-12,0,0,0,0,0
1564759261843.75,-27,55,-13,0,0,0,0,0
1564759261875,-29,52,-14,0,0,0,0,0
1564759261906.25,-32,48,-17,0,0,0,0,0
1564759261937.5,-32,47,-17,0,0,0,0,0
1564759261968.75,-32,46,-18,0,0,0,0,0
1564759262000,-36,48,-18,0,0,0,0,0
1564759262031.25,-37,50,-17,0,0,0,0,0
1564759262062.5,-36,54,-14,0,0,0,0,0
1564759262093.75,-35,57,-12,0,0,0,0,0
1564759262125,-32,62,-7,0,0,0,0,0
1564759262156.25,-29,65,-6,0,0,0,0,0
1564759262187.5,-19,70,-3,0,0,0,0,0
1564759262218.75,-16,73,-1,0,0,0,0,0
1564759262250,-21,67,1,0,0,0,0,0
1564759262281.25,-23,62,1,0,0,0,0,0
1564759262312.5,-25,53,1,0,0,0,0,0
1564759262343.75,-25,51,2,0,0,0,0,0
1564759262375,-28,55,1,0,0,0,0,0
1564759262406.25,-29,59,0,0,0,0,0,0
1564759262437.5,-26,62,-5,0,0,0,0,0
1564759262468.75,-27,63,-7,0,0,0,0,0
1564759262500,-33,66,-8,0,0,0,0,0
1564759262531.25,-35,68,-8,0,0,0,0,0
1564759262562.5,-30,66,-7,0,0,0,0,0
1564759262593.75,-26,71,-7,0,0,0,0,0
1564759262625,-14,72,-2,0,0,0,0,0
1564759262656.25,-10,69,0,0,0,0,0,0
1564759262687.5,-11,69,1,0,0,0,0,0
1564759262718.75,-14,66,1,0,0,0,0,0
1564759262750,-14,64,0,0,0,0,0,0
1564759262781.25,-16,58,-2,0,0,0,0,0
1564759262812.5,-17,54,-1,0,0,0,0,0
1564759262843.75,-19,52,0,0,0,0,0,0
1564759262875,-18,52,1,0,0,0,0,0
1564759262906.25,-19,53,3,0,0,0,0,0
1564759262937.5,-19,55,4,0,0,0,0,0
1564759262968.75,-15,59,5,0,0,0,0,0
1564759263000,-13,61,5,0,0,0,0,0
1564759263031.25,-15,63,4,0,0,0,0,0
1564759263062.5,-19,64,3,0,0,0,0,0
1564759263093.75,-23,64,2,0,0,0,0,0
1564759263125,-24,63,1,0,0,0,0,0
1564759263156.25,-24,62,-1,0,0,0,0,0
1564759263187.5,-23,62,-2,0,0,0,0,0
1564759263218.75,-29,66,1,0,0,0,0,0
1564759263250,-30,70,3,0,0,0,0,0
1564759263281.25,-26,68,2,0,0,0,0,0
1564759263312.5,-22,66,3,0,0,0,0,0
1564759263343.75,-21,65,4,0,0,0,0,0
1564759263375,-21,64,2,0,0,0,0,0
1564759263406.25,-21,63,1,0,0,0,0,0
1564759263437.5,-24,63,0,0,0,0,0,0
1564759263468.75,-24,62,0,0,0,0,0,0
1564759263500,-23,61,-1,0,0,0,0,0
1564759263531.25,-22,61,0,0,0,0,0,0
1564759263562.5,-20,62,1,0,0,0,0,0
1564759263593.75,-20,62,1,0,0,0,0,0
1564759263625,-19,63,2,0,0,0,0,0
1564759263656.25,-18,63,1,0,0,0,0,0
1564759263687.5,-17,62,1,0,0,0,0,0
1564759263718.75,-17,61,2,0,0,0,0,0
1564759263750,-16,58,1,0,0,0,0,0
1564759263781.25,-16,56,1,0,0,0,0,0
1564759263812.5,-18,56,0,0,0,0,0,0
1564759263843.75,-18,58,1,0,0,0,0,0
1564759263875,-17,61,4,0,0,0,0,0
1564759263906.25,-22,63,1,0,0,0,0,0
1564759263937.5,-26,64,-1,0,0,0,0,0
1564759263968.75,-19,64,3,0,0,0,0,0
1564759264000,-18,62,5,0,0,0,0,0
1564759264031.25,-21,63,2,0,0,0,0,0
1564759264062.5,-21,63,5,0,0,0,0,0
1564759264093.75,-22,63,3,0,0,0,0,0
1564759264125,-24,62,3,0,0,0,0,0
1564759264156.25,-24,60,2,0,0,0,0,0
1564759264187.5,-24,60,3,0,0,0,0,0
1564759264218.75,-23,60,3,0,0,0,0,0
1564759264250,-24,60,3,0,0,0,0,0
1564759264281.25,-22,61,3,0,0,0,0,0
1564759264312.5,-22,62,3,0,0,0,0,0
1564759264343.75,-25,64,2,0,0,0,0,0
1564759264375,-26,66,3,0,0,0,0,0
1564759264406.25,-30,71,9,0,0,0,0,0
1564759264437.5,-30,74,12,0,0,0,0,0
1564759264468.75,-32,76,9,0,0,0,0,0
1564759264500,-32,72,3,0,0,0,0,0
1564759264531.25,-55,61,-16,0,0,0,0,0
1564759264562.5,-97,51,-34,0,0,0,0,0
1564759264593.75,-98,45,-33,0,0,0,0,0
1564759264625,-104,32,-32,0,0,0,0,0
1564759264656.25,-121,34,-41,0,0,0,0,0
1564759264687.5,-128,53,-56,0,0,0,0,0
1564759264718.75,-128,59,-51,0,0,0,0,0
1564759264750,-128,77,-104,0,0,0,0,0
1564759264781.25,-53,124,-105,0,0,0,0,0
1564759264812.5,127,90,-21,0,0,0,0,0
1564759264843.75,127,50,-4,0,0,0,0,0
1564759264875,114,37,45,0,0,0,0,0
1564759264906.25,45,31,72,0,0,0,0,0
1564759264937.5,-128,-53,-13,0,0,0,0,0
1564759264968.75,-128,-85,-51,0,0,0,0,0
1564759265000,127,33,16,0,0,0,0,0
1564759265031.25,127,44,123,0,0,0,0,0
1564759265062.5,-3,11,73,0,0,0,0,0
1564759265093.75,-128,17,39,0,0,0,0,0
1564759265125,-128,-50,-35,0,0,0,0,0
1564759265156.25,127,12,127,0,0,0,0,0
1564759265187.5,-3,-5,37,0,0,0,0,0
1564759265218.75,-17,17,91,0,0,0,0,0
1564759265250,-121,-28,40,0,0,0,0,0
1564759265281.25,-102,-56,28,0,0,0,0,0
1564759265312.5,-54,-51,26,0,0,0,0,0
1564759265343.75,12,-15,39,0,0,0,0,0
1564759265375,27,0,50,0,0,0,0,0
1564759265406.25,11,11,56,0,0,0,0,0
1564759265437.5,-21,17,50,0,0,0,0,0
1564759265468.75,-63,6,33,0,0,0,0,0
1564759265500,-58,-3,38,0,0,0,0,0
1564759265531.25,-29,-15,37,0,0,0,0,0
1564759265562.5,-24,-17,27,0,0,0,0,0
1564759265593.75,-20,-11,24,0,0,0,0,0
1564759265625,-22,-5,25,0,0,0,0,0
1564759265656.25,-28,-3,15,0,0,0,0,0
1564759265687.5,-29,0,9,0,0,0,0,0
1564759265718.75,-73,18,6,0,0,0,0,0
1564759265750,-66,21,6,0,0,0,0,0
1564759265781.25,-61,40,8,0,0,0,0,0
1564759265812.5,-65,59,30,0,0,0,0,0
1564759265843.75,-65,62,34,0,0,0,0,0
1564759265875,-49,62,27,0,0,0,0,0
1564759265906.25,-39,62,18,0,0,0,0,0
1564759265937.5,-56,70,9,0,0,0,0,0
1564759265968.75,-62,73,13,0,0,0,0,0
1564759266000,-60,68,14,0,0,0,0,0
1564759266031.25,-53,67,13,0,0,0,0,0
1564759266062.5,-32,69,16,0,0,0,0,0
1564759266093.75,-31,71,18,0,0,0,0,0
1564759266125,-37,68,11,0,0,0,0,0
1564759266156.25,-33,69,9,0,0,0,0,0
1564759266187.5,-18,67,4,0,0,0,0,0
1564759266218.75,-11,66,0,0,0,0,0,0
1564759266250,-11,65,-5,0,0,0,0,0
1564759266281.25,-11,62,-5,0,0,0,0,0
1564759266312.5,-12,59,-1,0,0,0,0,0
1564759266343.75,-15,56,-1,0,0,0,0,0
1564759266375,-22,47,-6,0,0,0,0,0
1564759266406.25,-30,47,-3,0,0,0,0,0
1564759266437.5,-32,50,-1,0,0,0,0,0
1564759266468.75,-34,62,-6,0,0,0,0,0
1564759266500,-33,65,-10,0,0,0,0,0
1564759266531.25,-32,65,-15,0,0,0,0,0
1564759266562.5,-29,64,-13,0,0,0,0,0
1564759266593.75,-21,64,-1,0,0,0,0,0
1564759266625,-22,63,3,0,0,0,0,0
1564759266656.25,-20,57,3,0,0,0,0,0
1564759266687.5,-21,57,-3,0,0,0,0,0
1564759266718.75,-31,57,-5,0,0,0,0,0
1564759266750,-31,56,-4,0,0,0,0,0
1564759266781.25,-36,58,-6,0,0,0,0,0
1564759266812.5,-36,58,-7,0,0,0,0,0
1564759266843.75,-27,60,-10,0,0,0,0,0
1564759266875,-24,61,-10,0,0,0,0,0
1564759266906.25,-22,64,-8,0,0,0,0,0
1564759266937.5,-22,64,-6,0,0,0,0,0
1564759266968.75,-22,66,-6,0,0,0,0,0
1564759267000,-21,64,-5,0,0,0,0,0
1564759267031.25,-20,64,-6,0,0,0,0,0
1564759267062.5,-22,63,-4,0,0,0,0,0
1564759267093.75,-21,63,-4,0,0,0,0,0
1564759267125,-20,63,-5,0,0,0,0,0
1564759267156.25,-20,63,-5,0,0,0,0,0
1564759267187.5,-20,64,-3,0,0,0,0,0
1564759267218.75,-19,64,-3,0,0,0,0,0
1564759267250,-17,64,-4,0,0,0,0,0
1564759267281.25,-16,64,-3,0,0,0,0,0
1564759267312.5,-16,66,-1,0,0,0,0,0
1564759267343.75,-15,67,-2,0,0,0,0,0
1564759267375,-17,66,-4,0,0,0,0,0
1564759267406.25,-20,64,-2,0,0,0,0,0
1564759267437.5,-19,60,-1,0,0,0,0,0
1564759267468.75,-19,59,1,0,0,0,0,0
1564759267500,-21,59,8,0,0,0,0,0
1564759267531.25,-21,60,11,0,0,0,0,0
1564759267562.5,-20,61,13,0,0,0,0,0
1564759267593.75,-20,62,13,0,0,0,0,0
1564759267625,-20,63,16,0,0,0,0,0
1564759267656.25,-23,62,14,0,0,0,0,0
1564759267687.5,-25,61,11,0,0,0,0,0
1564759267718.75,-23,59,9,0,0,0,0,0
1564759267750,-22,58,10,0,0,0,0,0
1564759267781.25,-23,57,10,0,0,0,0,0
1564759267812.5,-22,56,9,0,0,0,0,0
1564759267843.75,-24,56,9,0,0,0,0,0
1564759267875,-24,56,10,0,0,0,0,0
1564759267906.25,-25,57,10,0,0,0,0,0
1564759267937.5,-26,58,9,0,0,0,0,0
1564759267968.75,-26,60,9,0,0,0,0,0
1564759268000,-25,60,9,0,0,0,0,0
1564759268031.25,-23,60,9,0,0,0,0,0
1564759268062.5,-21,63,9,0,0,0,0,0
1564759268093.75,-21,67,13,0,0,0,0,0
1564759268125,-22,64,14,0,0,0,0,0
1564759268156.25,-22,54,15,0,0,0,0,0
1564759268187.5,-24,51,19,0,0,0,0,0
1564759268218.75,-34,43,25,0,0,0,0,0
1564759268250,-44,39,22,0,0,0,0,0
1564759268281.25,-77,42,7,0,0,0,0,0
1564759268312.5,-78,41,5,0,0,0,0,0
1564759268343.75,-72,42,5,0,0,0,0,0
1564759268375,-55,49,6,0,0,0,0,0
1564759268406.25,-48,52,5,0,0,0,0,0
1564759268437.5,-42,52,2,0,0,0,0,0
1564759268468.75,-40,51,0,0,0,0,0,0
1564759268500,-34,49,-1,0,0,0,0,0
1564759268531.25,-35,50,0,0,0,0,0,0
1564759268562.5,-21,48,0,0,0,0,0,0
1564759268593.75,-16,50,5,0,0,0,0,0
1564759268625,-12,56,17,0,0,0,0,0
1564759268656.25,-11,54,5,0,0,0,0,0
1564759268687.5,-18,49,-6,0,0,0,0,0
1564759268718.75,-33,56,-6,0,0,0,0,0
1564759268750,-36,68,-15,0,0,0,0,0
1564759268781.25,-45,69,-21,0,0,0,0,0
1564759268812.5,-60,69,-28,0,0,0,0,0
1564759268843.75,-59,65,-26,0,0,0,1,1
1564759268875,-61,48,-28,0,0,0,1,1
1564759268906.25,-60,45,-39,0,0,0,1,1
1564759268937.5,-56,39,-51,0,0,0,1,1
1564759268968.75,-47,30,-53,0,0,0,1,1
1564759269000,-46,29,-53,0,0,0,1,1
1564759269031.25,-50,23,-48,0,0,0,1,1
1564759269062.5,-49,18,-48,0,0,0,1,1
1564759269093.75,-37,10,-45,0,0,0,1,1
1564759269125,-33,7,-39,0,0,0,1,1
1564759269156.25,-35,9,-33,0,0,0,1,1
1564759269187.5,-36,9,-28,0,0,0,1,1
1564759269218.75,-38,19,-27,0,0,0,1,1
1564759269250,-35,24,-37,0,0,0,1,1
1564759269281.25,-19,57,-51,0,0,0,1,1
1564759269312.5,-24,80,-53,0,0,0,1,1
1564759269343.75,4,111,-128,0,0,0,1,1
1564759269375,4,124,-99,0,0,0,1,1
1564759269406.25,-128,127,40,0,0,0,1,1
1564759269437.5,57,127,63,0,0,0,1,1
1564759269468.75,-128,88,-54,0,0,0,1,1
1564759269500,-78,57,71,0,0,0,1,1
1564759269531.25,-29,49,-29,0,0,0,1,1
1564759269562.5,-34,39,-43,0,0,0,1,1
1564759269593.75,-19,24,-50,0,0,0,1,1
1564759269625,-35,15,-64,0,0,0,1,1
1564759269656.25,-54,14,-52,0,0,0,1,1
1564759269687.5,-37,4,-35,0,0,0,1,1
1564759269718.75,-35,2,-41,0,0,0,1,1
1564759269750,-41,23,-23,0,0,0,1,1
1564759269781.25,-44,21,-14,0,0,0,1,1
1564759269812.5,-56,10,-25,0,0,0,1,1
1564759269843.75,-51,15,-33,0,0,0,1,1
1564759269875,-52,27,-31,0,0,0,0,0
1564759269906.25,-49,30,-28,0,0,0,0,0
1564759269937.5,-43,37,-33,0,0,0,0,0
1564759269968.75,-42,35,-38,0,0,0,0,0
1564759270000,-47,37,-42,0,0,0,0,0
1564759270031.25,-47,37,-40,0,0,0,0,0
1564759270062.5,-41,30,-45,0,0,0,0,0
1564759270093.75,-42,33,-44,0,0,0,0,0
1564759270125,-46,31,-41,0,0,0,0,0
1564759270156.25,-47,33,-39,0,0,0,0,0
1564759270187.5,-42,35,-36,0,0,0,0,0
1564759270218.75,-41,39,-38,0,0,0,0,0
1564759270250,-46,42,-36,0,0,0,0,0
1564759270281.25,-48,40,-31,0,0,0,0,0
1564759270312.5,-47,38,-24,0,0,0,0,0
1564759270343.75,-49,37,-15,0,0,0,0,0
1564759270375,-47,36,-18,0,0,0,0,0
1564759270406.25,-40,40,-20,0,0,0,0,0
1564759270437.5,-39,43,-19,0,0,0,0,0
1564759270468.75,-44,43,-19,0,0,0,0,0
1564759270500,-45,40,-20,0,0,0,0,0
1564759270531.25,-42,34,-21,0,0,0,0,0
1564759270562.5,-42,32,-23,0,0,0,0,0
1564759270593.75,-43,29,-26,0,0,0,0,0
1564759270625,-44,27,-26,0,0,0,0,0
1564759270656.25,-47,26,-25,0,0,0,0,0
1564759270687.5,-47,26,-26,0,0,0,0,0
1564759270718.75,-47,29,-38,0,0,0,0,0
1564759270750,-46,37,-32,0,0,0,0,0
1564759270781.25,-52,39,-43,0,0,0,0,0
1564759270812.5,-46,50,-53,0,0,0,0,0
1564759270843.75,-44,50,-54,0,0,0,0,0
1564759270875,-32,48,-48,0,0,0,0,0
1564759270906.25,-29,47,-41,0,0,0,0,0
1564759270937.5,-29,41,-26,0,0,0,0,0
1564759270968.75,-31,40,-25,0,0,0,0,0
1564759271000,-28,38,-19,0,0,0,0,0
1564759271031.25,-30,34,-20,0,0,0,0,0
1564759271062.5,-31,40,-20,0,0,0,0,0
1564759271093.75,-31,42,-23,0,0,0,0,0
1564759271125,-32,46,-32,0,0,0,0,0
1564759271156.25,-33,48,-32,0,0,0,0,0
1564759271187.5,-39,48,-35,0,0,0,0,0
1564759271218.75,-40,46,-32,0,0,0,0,0
1564759271250,-44,43,-31,0,0,0,0,0
1564759271281.25,-40,45,-26,0,0,0,0,0
1564759271312.5,-35,51,-20,0,0,0,0,0
1564759271343.75,-38,57,-20,0,0,0,0,0
1564759271375,-51,63,-24,0,0,0,0,0
1564759271406.25,-51,65,-24,0,0,0,0,0
1564759271437.5,-49,59,-25,0,0,0,0,0
1564759271468.75,-44,51,-22,0,0,0,0,0
1564759271500,-40,47,-19,0,0,0,0,0
1564759271531.25,-34,44,-14,0,0,0,0,0
1564759271562.5,-32,42,-13,0,0,0,0,0
1564759271593.75,-31,43,-11,0,0,0,0,0
1564759271625,-30,45,-10,0,0,0,0,0
1564759271656.25,-29,51,-7,0,0,0,0,0
1564759271687.5,-29,50,-7,0,0,0,0,0
1564759271718.75,-24,51,-8,0,0,0,0,0
1564759271750,-23,53,-7,0,0,0,0,0
1564759271781.25,-23,62,-7,0,0,0,0,0
1564759271812.5,-25,68,-8,0,0,0,0,0
1564759271843.75,-29,76,-10,0,0,0,0,0
1564759271875,-30,70,-9,0,0,0,0,0
1564759271906.25,-31,62,-5,0,0,0,0,0
1564759271937.5,-30,58,-4,0,0,0,0,0
1564759271968.75,-25,59,2,0,0,0,0,0
1564759272000,-22,58,3,0,0,0,0,0
1564759272031.25,-21,59,3,0,0,0,0,0
1564759272062.5,-22,61,4,0,0,0,0,0
1564759272093.75,-22,62,4,0,0,0,0,0
1564759272125,-25,65,2,0,0,0,0,0
1564759272156.25,-26,66,2,0,0,0,0,0
1564759272187.5,-23,64,1,0,0,0,0,0
1564759272218.75,-21,61,-1,0,0,0,0,0
1564759272250,-18,46,-23,0,0,0,0,0
1564759272281.25,-32,26,-46,0,0,0,0,0
1564759272312.5,-73,29,-6,0,0,0,0,0
1564759272343.75,-85,76,12,0,0,0,0,0
1564759272375,10,119,20,0,0,0,0,0
1564759272406.25,24,119,5,0,0,0,0,0
1564759272437.5,34,76,-8,0,0,0,0,0
1564759272468.75,39,52,-6,0,0,0,0,0
1564759272500,-11,36,-26,0,0,0,0,0
1564759272531.25,-38,35,-14,0,0,0,0,0
1564759272562.5,-57,63,-12,0,0,0,0,0
1564759272593.75,-54,56,-15,0,0,0,0,0
1564759272625,-36,55,-16,0,0,0,0,0
1564759272656.25,-31,64,-13,0,0,0,0,0
1564759272687.5,-7,57,-8,0,0,0,0,0
1564759272718.75,3,51,-8,0,0,0,0,0
1564759272750,-6,47,-13,0,0,0,0,0
1564759272781.25,-32,44,-16,0,0,0,0,0
1564759272812.5,-40,42,-13,0,0,0,0,0
1564759272843.75,-53,43,-15,0,0,0,0,0
1564759272875,-48,49,-10,0,0,0,0,0
1564759272906.25,-63,57,-14,0,0,0,0,0
1564759272937.5,-70,49,-24,0,0,0,0,0
1564759272968.75,-43,56,-15,0,0,0,0,0
1564759273000,-40,58,-10,0,0,0,0,0
1564759273031.25,-32,60,-3,0,0,0,0,0
1564759273062.5,-28,61,-2,0,0,0,0,0
1564759273093.75,-28,62,0,0,0,0,0,0
1564759273125,-26,59,3,0,0,0,0,0
1564759273156.25,-25,57,4,0,0,0,0,0
1564759273187.5,-26,55,2,0,0,0,0,0
1564759273218.75,-28,54,-1,0,0,0,0,0
1564759273250,-31,58,-2,0,0,0,0,0
1564759273281.25,-31,59,-4,0,0,0,0,0
1564759273312.5,-31,61,-2,0,0,0,0,0
1564759273343.75,-28,60,0,0,0,0,0,0
1564759273375,-20,58,0,0,0,0,0,0
1564759273406.25,-18,59,0,0,0,0,0,0
1564759273437.5,-16,60,0,0,0,0,0,0
1564759273468.75,-17,58,-2,0,0,0,0,0
1564759273500,-15,56,-5,0,0,0,0,0
1564759273531.25,-15,56,-7,0,0,0,0,0
1564759273562.5,-17,55,-9,0,0,0,0,0
1564759273593.75,-21,55,-13,0,0,0,0,0
1564759273625,-19,58,-13,0,0,0,0,0
1564759273656.25,-21,59,-14,0,0,0,0,0
1564759273687.5,-25,59,-17,0,0,0,0,0
1564759273718.75,-29,60,-18,0,0,0,0,0
1564759273750,-31,63,-17,0,0,0,0,0
1564759273781.25,-30,65,-16,0,0,0,0,0
1564759273812.5,-35,71,-14,0,0,0,0,0
1564759273843.75,-37,75,-15,0,0,0,0,0
1564759273875,-36,77,-17,0,0,0,0,0
1564759273906.25,-28,79,-10,0,0,0,0,0
1564759273937.5,-24,77,-7,0,0,0,0,0
1564759273968.75,-14,71,-1,0,0,0,0,0
1564759274000,-13,67,-2,0,0,0,0,0
1564759274031.25,-11,59,-4,0,0,0,0,0
1564759274062.5,-10,56,-6,0,0,0,0,0
1564759274093.75,-10,51,-12,0,0,0,0,0
1564759274125,-11,51,-15,0,0,0,0,0
1564759274156.25,-17,55,-19,0,0,0,0,0
1564759274187.5,-16,59,-18,0,0,0,0,0
1564759274218.75,-20,63,-16,0,0,0,0,0
1564759274250,-18,67,-15,0,0,0,0,0
1564759274281.25,-24,70,-12,0,0,0,0,0
1564759274312.5,-28,67,-9,0,0,0,0,0
1564759274343.75,-27,58,-5,0,0,0,0,0
1564759274375,-24,58,-3,0,0,0,0,0
1564759274406.25,-14,62,-1,0,0,0,0,0
1564759274437.5,-10,66,0,0,0,0,0,0
1564759274468.75,-7,68,3,0,0,0,0,0
1564759274500,-13,63,5,0,0,0,0,0
1564759274531.25,-15,60,8,0,0,0,0,0
1564759274562.5,-17,58,14,0,0,0,0,0
1564759274593.75,-14,57,18,0,0,0,0,0
1564759274625,-16,53,16,0,0,0,0,0
1564759274656.25,-16,52,13,0,0,0,0,0
1564759274687.5,-18,52,3,0,0,0,0,0
1564759274718.75,-17,52,2,0,0,0,0,0
1564759274750,-13,58,-2,0,0,0,0,0
1564759274781.25,-12,67,-3,0,0,0,0,0
1564759274812.5,-15,73,-6,0,0,0,0,0
1564759274843.75,-14,69,-9,0,0,0,0,0
1564759274875,-16,57,-15,0,0,0,0,0
1564759274906.25,-15,56,-16,0,0,0,0,0
1564759274937.5,-20,66,-18,0,0,0,0,0
1564759274968.75,-26,70,-20,0,0,0,0,0
1564759275000,-31,68,-25,0,0,0,0,0
1564759275031.25,-30,66,-25,0,0,0,0,0
1564759275062.5,-24,66,-14,0,0,0,0,0
1564759275093.75,-20,65,-10,0,0,0,0,0
1564759275125,-14,64,-7,0,0,0,0,0
1564759275156.25,-11,61,-8,0,0,0,0,0
1564759275187.5,-12,59,-10,0,0,0,0,0
1564759275218.75,-18,57,-9,0,0,0,0,0
1564759275250,-21,56,-7,0,0,0,0,0
1564759275281.25,-23,58,-5,0,0,0,0,0
1564759275312.5,-23,61,-5,0,0,0,0,0
1564759275343.75,-25,67,-3,0,0,0,0,0
1564759275375,-24,69,-1,0,0,0,0,0
1564759275406.25,-21,70,6,0,0,0,0,0
1564759275437.5,-20,70,9,0,0,0,0,0
1564759275468.75,-18,74,10,0,0,0,0,0
1564759275500,-16,75,8,0,0,0,0,0
1564759275531.25,-12,74,7,0,0,0,0,0
1564759275562.5,-11,69,7,0,0,0,0,0
1564759275593.75,-8,59,11,0,0,0,0,0
1564759275625,-7,55,11,0,0,0,0,0
1564759275656.25,-8,52,9,0,0,0,0,0
1564759275687.5,-10,52,6,0,0,0,0,0
1564759275718.75,-14,51,2,0,0,0,0,0
1564759275750,-16,57,0,0,0,0,0,0
1564759275781.25,-18,64,1,0,0,0,0,0
1564759275812.5,-16,64,0,0,0,0,0,0
1564759275843.75,-17,63,-3,0,0,0,0,0
1564759275875,-20,60,-6,0,0,0,0,0
1564759275906.25,-21,59,-5,0,0,0,0,0
1564759275937.5,-27,56,-6,0,0,0,0,0
1564759275968.75,-29,56,-6,0,0,0,0,0
1564759276000,-31,64,-5,0,0,0,0,0
1564759276031.25,-33,72,-3,0,0,0,0,0
1564759276062.5,-31,77,0,0,0,0,0,0
1564759276093.75,-28,72,0,0,0,0,0,0
1564759276125,-20,62,1,0,0,0,0,0
1564759276156.25,-16,60,3,0,0,0,0,0
1564759276187.5,-16,60,3,0,0,0,0,0
1564759276218.75,-17,60,2,0,0,0,0,0
1564759276250,-19,61,-1,0,0,0,0,0
1564759276281.25,-19,60,-1,0,0,0,0,0
1564759276312.5,-21,61,-4,0,0,0,0,0
1564759276343.75,-20,64,-4,0,0,0,0,0
1564759276375,-21,63,-4,0,0,0,0,0
1564759276406.25,-18,62,-3,0,0,0,0,0
1564759276437.5,-17,60,-2,0,0,0,0,0
1564759276468.75,-17,58,-2,0,0,0,0,0
1564759276500,-17,58,-2,0,0,0,0,0
1564759276531.25,-18,60,-1,0,0,0,0,0
1564759276562.5,-18,62,0,0,0,0,0,0
1564759276593.75,-19,64,0,0,0,0,0,0
1564759276625,-19,64,0,0,0,0,0,0
1564759276656.25,-21,63,0,0,0,0,0,0
1564759276687.5,-21,62,0,0,0,0,0,0
1564759276718.75,-22,62,-2,0,0,0,0,0
1564759276750,-22,62,-2,0,0,0,0,0
1564759276781.25,-23,64,-2,0,0,0,0,0
1564759276812.5,-23,65,-2,0,0,0,0,0
1564759276843.75,-23,65,-3,0,0,0,0,0
1564759276875,-24,64,-3,0,0,0,0,0
1564759276906.25,-24,62,-4,0,0,0,0,0
1564759276937.5,-24,61,-4,0,0,0,0,0
1564759276968.75,-22,60,-4,0,0,0,0,0
1564759277000,-22,60,-4,0,0,0,0,0
1564759277031.25,-22,59,-4,0,0,0,0,0
1564759277062.5,-24,61,-4,0,0,0,0,0
1564759277093.75,-24,62,-4,0,0,0,0,0
1564759277125,-23,63,-2,0,0,0,0,0
1564759277156.25,-23,64,-2,0,0,0,0,0
1564759277187.5,-19,64,-1,0,0,0,0,0
1564759277218.75,-19,63,-1,0,0,0,0,0
1564759277250,-18,62,0,0,0,0,0,0
1564759277281.25,-17,62,1,0,0,0,0,0
1564759277312.5,-17,61,1,0,0,0,0,0
1564759277343.75,-17,60,1,0,0,0,0,0
1564759277375,-17,59,0,0,0,0,0,0
1564759277406.25,-17,58,-1,0,0,0,0,0
1564759277437.5,-19,56,-2,0,0,0,0,0
1564759277468.75,-23,55,-4,0,0,0,0,0
1564759277500,-29,57,-4,0,0,0,0,0
1564759277531.25,-32,63,-4,0,0,0,0,0
1564759277562.5,-31,68,-1,0,0,0,0,0
1564759277593.75,-22,70,3,0,0,0,0,0
1564759277625,-18,69,6,0,0,0,0,0
1564759277656.25,-14,64,10,0,0,0,0,0
1564759277687.5,-13,62,10,0,0,0,0,0
1564759277718.75,-16,61,7,0,0,0,0,0
1564759277750,-17,60,4,0,0,0,0,0
1564759277781.25,-21,58,-4,0,0,0,0,0
1564759277812.5,-24,59,-7,0,0,0,0,0
1564759277843.75,-28,58,-9,0,0,0,0,0
1564759277875,-31,57,-11,0,0,0,0,0
1564759277906.25,-36,55,-16,0,0,0,0,0
1564759277937.5,-34,53,-16,0,0,0,0,0
1564759277968.75,-35,52,-20,0,0,0,0,0
1564759278000,-37,51,-20,0,0,0,0,0
1564759278031.25,-35,46,-22,0,0,0,0,0
1564759278062.5,-33,46,-23,0,0,0,0,0
1564759278093.75,-38,50,-24,0,0,0,0,0
1564759278125,-40,52,-18,0,0,0,0,0
1564759278156.25,-35,65,-4,0,0,0,0,0
1564759278187.5,-11,63,13,0,0,0,0,0
1564759278218.75,-19,62,-3,0,0,0,0,0
1564759278250,-26,61,-17,0,0,0,0,0
1564759278281.25,-22,59,-25,0,0,0,0,0
1564759278312.5,-47,58,-24,0,0,0,0,0
1564759278343.75,-48,56,-17,0,0,0,0,0
1564759278375,-39,52,-15,0,0,0,0,0
1564759278406.25,-41,52,-20,0,0,0,0,0
1564759278437.5,-41,50,-27,0,0,0,0,0
1564759278468.75,-41,49,-32,0,0,0,0,0
1564759278500,-35,47,-35,0,0,0,0,0
1564759278531.25,-23,48,-29,0,0,0,0,0
1564759278562.5,-25,55,-22,0,0,0,0,0
1564759278593.75,-26,66,-18,0,0,0,0,0
1564759278625,-43,48,-24,0,0,0,0,0
1564759278656.25,-38,50,-30,0,0,0,0,0
1564759278687.5,-38,39,-38,0,0,0,0,0
1564759278718.75,-42,39,-36,0,0,0,0,0
1564759278750,-34,34,-34,0,0,0,0,0
1564759278781.25,-29,40,-34,0,0,0,0,0
1564759278812.5,-41,53,-43,0,0,0,0,0
