Timestamp,ACC_X,ACC_Y,ACC_Z,Note,AGG,ED,SIB,Condition
1564765173000,-46,-13,-44,0,0,0,0,0
1564765173031.25,-44,-13,-43,0,0,0,0,0
1564765173062.5,-47,-15,-46,0,0,0,0,0
1564765173093.75,-52,-17,-52,0,0,0,0,0
1564765173125,-32,-16,-49,0,0,0,0,0
1564765173156.25,-56,-13,-46,0,0,0,0,0
1564765173187.5,-39,-13,-36,0,0,0,0,0
1564765173218.75,-34,-12,-35,0,0,0,0,0
1564765173250,-36,-15,-40,0,0,0,0,0
1564765173281.25,-49,-16,-51,0,0,0,0,0
1564765173312.5,-48,-21,-48,0,0,0,0,0
1564765173343.75,-34,-28,-38,0,0,0,0,0
1564765173375,-40,-23,-47,0,0,0,0,0
1564765173406.25,-40,-22,-43,0,0,0,0,0
1564765173437.5,-40,-21,-41,0,0,0,0,0
1564765173468.75,-39,-21,-45,0,0,0,0,0
1564765173500,-40,-23,-46,0,0,0,0,0
1564765173531.25,-38,-25,-48,0,0,0,0,0
1564765173562.5,-37,-26,-46,0,0,0,0,0
1564765173593.75,-40,-22,-46,0,0,0,0,0
1564765173625,-34,-24,-49,0,0,0,0,0
1564765173656.25,-35,-22,-49,0,0,0,0,0
1564765173687.5,-35,-20,-44,0,0,0,0,0
1564765173718.75,-35,-21,-45,0,0,0,0,0
1564765173750,-30,-22,-46,0,0,0,0,0
1564765173781.25,-30,-21,-41,0,0,0,0,0
1564765173812.5,-39,-25,-49,0,0,0,0,0
1564765173843.75,-128,-13,-105,0,0,0,0,0
1564765173875,-40,-20,-19,0,0,0,0,0
1564765173906.25,-20,-34,-20,0,0,0,0,0
1564765173937.5,-44,-50,-26,0,0,0,0,0
1564765173968.75,-49,-39,-29,0,0,0,0,0
1564765174000,-52,-32,-31,0,0,0,0,0
1564765174031.25,-51,-29,-28,0,0,0,0,0
1564765174062.5,-51,-33,-29,0,0,0,0,0
1564765174093.75,-47,-31,-30,0,0,0,0,0
1564765174125,-47,-35,-34,0,0,0,0,0
1564765174156.25,-49,-34,-28,0,0,0,0,0
1564765174187.5,-49,-36,-26,0,0,0,0,0
1564765174218.75,-37,-32,-34,0,0,0,0,0
1564765174250,-59,3,-47,0,0,0,0,0
1564765174281.25,-49,-18,-32,0,0,0,0,0
1564765174312.5,-47,-18,-38,0,0,0,0,0
1564765174343.75,-47,-34,-38,0,0,0,0,0
1564765174375,-50,-17,-30,0,0,0,0,0
1564765174406.25,-51,-21,-30,0,0,0,0,0
1564765174437.5,-50,-5,-23,0,0,0,0,0
1564765174468.75,-56,1,-17,0,0,0,0,0
1564765174500,-80,-15,-21,0,0,0,0,0
1564765174531.25,-64,-26,-27,0,0,0,0,0
1564765174562.5,-48,-14,-22,0,0,0,0,0
1564765174593.75,-61,-14,-11,0,0,0,0,0
1564765174625,-62,-17,-15,0,0,0,0,0
1564765174656.25,-54,-15,-9,0,0,0,0,0
1564765174687.5,-61,-16,-11,0,0,0,0,0
1564765174718.75,-65,-16,-12,0,0,0,0,0
1564765174750,-63,-10,-11,0,0,0,0,0
1564765174781.25,-61,-10,-13,0,0,0,0,0
1564765174812.5,-63,-6,-11,0,0,0,0,0
1564765174843.75,-63,-7,-11,0,0,0,0,0
1564765174875,-66,-5,-12,0,0,0,0,0
1564765174906.25,-59,-5,-13,0,0,0,0,0
1564765174937.5,-59,-3,-14,0,0,0,0,0
1564765174968.75,-61,-3,-14,0,0,0,0,0
1564765175000,-61,-6,-17,0,0,0,0,0
1564765175031.25,-60,-5,-18,0,0,0,0,0
1564765175062.5,-64,-7,-18,0,0,0,0,0
1564765175093.75,-64,-6,-18,0,0,0,0,0
1564765175125,-55,-8,-16,0,0,0,0,0
1564765175156.25,-58,-7,-16,0,0,0,0,0
1564765175187.5,-64,-6,-14,0,0,0,0,0
1564765175218.75,-64,-8,-17,0,0,0,0,0
1564765175250,-62,-6,-16,0,0,0,0,0
1564765175281.25,-59,-6,-16,0,0,0,0,0
1564765175312.5,-59,-4,-14,0,0,0,0,0
1564765175343.75,-59,-14,-24,0,0,0,0,0
1564765175375,-68,-3,-22,0,0,0,0,0
1564765175406.25,-61,-6,-29,0,0,0,0,0
1564765175437.5,-53,-7,-27,0,0,0,0,0
1564765175468.75,-54,-2,-22,0,0,0,0,0
1564765175500,-52,-4,-21,0,0,0,0,0
1564765175531.25,-58,-2,-19,0,0,0,0,0
1564765175562.5,-61,0,-21,0,0,0,0,0
1564765175593.75,-59,-6,-32,0,0,0,0,0
1564765175625,-59,-2,-31,0,0,0,0,0
1564765175656.25,-55,-5,-32,0,0,0,0,0
1564765175687.5,-54,-1,-29,0,0,0,0,0
1564765175718.75,-53,-4,-31,0,0,0,0,0
1564765175750,-56,-1,-30,0,0,0,0,0
1564765175781.25,-57,-4,-32,0,0,0,0,0
1564765175812.5,-55,-2,-32,0,0,0,0,0
1564765175843.75,-56,-1,-32,0,0,0,0,0
1564765175875,-55,-2,-34,0,0,0,0,0
1564765175906.25,-53,-5,-35,0,0,0,0,0
1564765175937.5,-49,-4,-39,0,0,0,0,0
1564765175968.75,-52,-1,-36,0,0,0,0,0
1564765176000,-50,-3,-35,0,0,0,0,0
1564765176031.25,-47,-2,-33,0,0,0,0,0
1564765176062.5,-50,-4,-35,0,0,0,0,0
1564765176093.75,-47,-4,-39,0,0,0,0,0
1564765176125,-49,-3,-39,0,0,0,0,0
1564765176156.25,-52,-2,-43,0,0,0,0,0
1564765176187.5,-46,-5,-45,0,0,0,0,0
1564765176218.75,-48,-4,-46,0,0,0,0,0
1564765176250,-47,-3,-45,0,0,0,0,0
1564765176281.25,-46,-3,-46,0,0,0,0,0
1564765176312.5,-50,-4,-48,0,0,0,0,0
1564765176343.75,-46,-5,-52,0,0,0,0,0
1564765176375,-45,-4,-51,0,0,0,0,0
1564765176406.25,-43,-3,-42,0,0,0,0,0
1564765176437.5,-47,-7,-40,0,0,0,0,0
1564765176468.75,-45,-10,-41,0,0,0,0,0
1564765176500,-43,-10,-43,0,0,0,0,0
1564765176531.25,-41,-10,-45,0,0,0,0,0
1564765176562.5,-40,-10,-48,0,0,0,0,0
1564765176593.75,-39,-10,-50,0,0,0,0,0
1564765176625,-39,-10,-50,0,0,0,0,0
1564765176656.25,-39,-11,-48,0,0,0,0,0
1564765176687.5,-38,-12,-48,0,0,0,0,0
1564765176718.75,-40,-13,-47,0,0,0,0,0
1564765176750,-41,-13,-47,0,0,0,0,0
1564765176781.25,-42,-15,-50,0,0,0,0,0
1564765176812.5,-39,-17,-51,0,0,0,0,0
1564765176843.75,-36,-17,-53,0,0,0,0,0
1564765176875,-35,-16,-54,0,0,0,0,0
1564765176906.25,-34,-14,-47,0,0,0,0,0
1564765176937.5,-34,-14,-44,0,0,0,0,0
1564765176968.75,-37,-15,-43,0,0,0,0,0
1564765177000,-37,-18,-45,0,0,0,0,0
1564765177031.25,-36,-18,-46,0,0,0,0,0
1564765177062.5,-35,-18,-46,0,0,0,0,0
1564765177093.75,-36,-18,-48,0,0,0,0,0
1564765177125,-35,-16,-52,0,0,0,0,0
1564765177156.25,-35,-16,-52,0,0,0,0,0
1564765177187.5,-36,-18,-51,0,0,0,0,0
1564765177218.75,-36,-18,-52,0,0,0,0,0
1564765177250,-36,-18,-51,0,0,0,0,0
1564765177281.25,-35,-18,-50,0,0,0,0,0
1564765177312.5,-36,-19,-50,0,0,0,0,0
1564765177343.75,-35,-16,-48,0,0,0,0,0
1564765177375,-35,-13,-49,0,0,0,0,0
1564765177406.25,-32,-18,-50,0,0,0,0,0
1564765177437.5,-36,-17,-52,0,0,0,0,0
1564765177468.75,-35,-14,-51,0,0,0,0,0
1564765177500,-37,-14,-53,0,0,0,0,0
1564765177531.25,-39,-15,-51,0,0,0,0,0
1564765177562.5,-41,-14,-52,0,0,0,0,0
1564765177593.75,-35,-13,-46,0,0,0,0,0
1564765177625,-49,-11,-46,0,0,0,0,0
1564765177656.25,-42,-8,-42,0,0,0,0,0
1564765177687.5,-40,-13,-54,0,0,0,0,0
1564765177718.75,-42,-11,-48,0,0,0,0,0
1564765177750,-41,-13,-39,0,0,0,0,0
1564765177781.25,-42,-13,-40,0,0,0,0,0
1564765177812.5,-43,-11,-41,0,0,0,0,0
1564765177843.75,-48,-10,-46,0,0,0,0,0
1564765177875,-44,-9,-45,0,0,0,0,0
1564765177906.25,-44,-10,-45,0,0,0,0,0
1564765177937.5,-48,-10,-37,0,0,0,0,0
1564765177968.75,-44,-16,-40,0,0,0,0,0
1564765178000,-43,-14,-44,0,0,0,0,0
1564765178031.25,-53,-11,-46,0,0,0,0,0
1564765178062.5,-55,-12,-50,0,0,0,0,0
1564765178093.75,-43,-16,-41,0,0,0,0,0
1564765178125,-43,-17,-38,0,0,0,0,0
1564765178156.25,-41,-15,-44,0,0,0,0,0
1564765178187.5,-41,-16,-45,0,0,0,0,0
1564765178218.75,-40,-15,-41,0,0,0,0,0
1564765178250,-43,-33,-45,0,0,0,0,0
1564765178281.25,-43,-5,-46,0,0,0,0,0
1564765178312.5,-43,-22,-54,0,0,0,0,0
1564765178343.75,-32,-25,-49,0,0,0,0,0
1564765178375,-37,-18,-47,0,0,0,0,0
1564765178406.25,-30,-17,-46,0,0,0,0,0
1564765178437.5,-39,-21,-54,0,0,0,0,0
1564765178468.75,-40,-23,-53,0,0,0,0,0
1564765178500,-35,-20,-45,0,0,0,0,0
1564765178531.25,-35,-21,-48,0,0,0,0,0
1564765178562.5,-35,-18,-46,0,0,0,0,0
1564765178593.75,-32,-23,-51,0,0,0,0,0
1564765178625,-29,-20,-51,0,0,0,0,0
1564765178656.25,-28,-22,-48,0,0,0,0,0
1564765178687.5,-27,-23,-45,0,0,0,0,0
1564765178718.75,-30,-21,-48,0,0,0,0,0
1564765178750,-31,-23,-50,0,0,0,0,0
1564765178781.25,-29,-21,-50,0,0,0,0,0
1564765178812.5,-27,-21,-53,0,0,0,0,0
1564765178843.75,-28,-22,-55,0,0,0,0,0
1564765178875,-25,-22,-57,0,0,0,0,0
1564765178906.25,-23,-21,-55,0,0,0,0,0
1564765178937.5,-25,-20,-55,0,0,0,0,0
1564765178968.75,-25,-20,-56,0,0,0,0,0
1564765179000,-23,-20,-58,0,0,0,0,0
1564765179031.25,-23,-20,-58,0,0,0,0,0
1564765179062.5,-22,-20,-56,0,0,0,0,0
1564765179093.75,-21,-19,-57,0,0,0,0,0
1564765179125,-22,-18,-58,0,0,0,0,0
1564765179156.25,-21,-16,-56,0,0,0,0,0
1564765179187.5,-20,-16,-57,0,0,0,0,0
1564765179218.75,-20,-17,-57,0,0,0,0,0
1564765179250,-20,-18,-56,0,0,0,0,0
1564765179281.25,-23,-18,-60,0,0,0,0,0
1564765179312.5,-21,-17,-56,0,0,0,0,0
1564765179343.75,-19,-17,-57,0,0,0,0,0
1564765179375,-18,-16,-57,0,0,0,0,0
1564765179406.25,-16,-17,-55,0,0,0,0,0
1564765179437.5,-19,-17,-60,0,0,0,0,0
1564765179468.75,-17,-16,-57,0,0,0,0,0
1564765179500,-20,-17,-59,0,0,0,0,0
1564765179531.25,-19,-16,-62,0,0,0,0,0
1564765179562.5,-20,-13,-57,0,0,0,0,0
1564765179593.75,-22,-15,-60,0,0,0,0,0
1564765179625,-19,-16,-60,0,0,0,0,0
1564765179656.25,-19,-15,-56,0,0,0,0,0
1564765179687.5,-17,-15,-57,0,0,0,0,0
1564765179718.75,-18,-14,-60,0,0,0,0,0
1564765179750,-20,-11,-56,0,0,0,0,0
1564765179781.25,-17,-14,-58,0,0,0,0,0
1564765179812.5,-20,-16,-60,0,0,0,0,0
1564765179843.75,-19,-15,-56,0,0,0,0,0
1564765179875,-17,-14,-60,0,0,0,0,0
1564765179906.25,-16,-15,-59,0,0,0,0,0
1564765179937.5,-18,-14,-57,0,0,0,0,0
1564765179968.75,-18,-15,-56,0,0,0,0,0
1564765180000,-18,-15,-58,0,0,0,0,0
1564765180031.25,-19,-15,-65,0,0,0,0,0
1564765180062.5,-20,-16,-62,0,0,0,0,0
1564765180093.75,-21,-16,-59,0,0,0,0,0
1564765180125,-20,-16,-61,0,0,0,0,0
1564765180156.25,-20,-15,-61,0,0,0,0,0
1564765180187.5,-17,-15,-57,0,0,0,0,0
1564765180218.75,-18,-15,-59,0,0,0,0,0
1564765180250,-14,-16,-57,0,0,0,0,0
1564765180281.25,-19,-14,-58,0,0,0,0,0
1564765180312.5,-19,-18,-59,0,0,0,0,0
1564765180343.75,-19,-15,-58,0,0,0,0,0
1564765180375,-16,-17,-57,0,0,0,0,0
1564765180406.25,-16,-16,-59,0,0,0,0,0
1564765180437.5,-17,-17,-60,0,0,0,0,0
1564765180468.75,-18,-17,-58,0,0,0,0,0
1564765180500,-18,-17,-57,0,0,0,0,0
1564765180531.25,-18,-18,-59,0,0,0,0,0
1564765180562.5,-17,-17,-58,0,0,0,0,0
1564765180593.75,-17,-18,-58,0,0,0,0,0
1564765180625,-16,-17,-61,0,0,0,0,0
1564765180656.25,-19,-19,-60,0,0,0,0,0
1564765180687.5,-20,-19,-58,0,0,0,0,0
1564765180718.75,-19,-18,-59,0,0,0,0,0
1564765180750,-18,-19,-58,0,0,0,0,0
1564765180781.25,-18,-21,-57,0,0,0,0,0
1564765180812.5,-17,-19,-55,0,0,0,0,0
1564765180843.75,-17,-18,-57,0,0,0,0,0
1564765180875,-18,-19,-56,0,0,0,0,0
1564765180906.25,-20,-20,-56,0,0,0,0,0
1564765180937.5,-21,-20,-58,0,0,0,0,0
1564765180968.75,-17,-22,-53,0,0,0,0,0
1564765181000,-21,-19,-58,0,0,0,0,0
1564765181031.25,-23,-22,-57,0,0,0,0,0
1564765181062.5,-19,-20,-56,0,0,0,0,0
1564765181093.75,-18,-20,-54,0,0,0,0,0
1564765181125,-23,-22,-54,0,0,0,0,0
1564765181156.25,-22,-22,-56,0,0,0,0,0
1564765181187.5,-18,-23,-52,0,0,0,0,0
1564765181218.75,-19,-22,-56,0,0,0,0,0
1564765181250,-18,-22,-58,0,0,0,0,0
1564765181281.25,-17,-23,-56,0,0,0,0,0
1564765181312.5,-21,-23,-56,0,0,0,0,0
1564765181343.75,-24,-24,-57,0,0,0,0,0
1564765181375,-21,-26,-54,0,0,0,0,0
1564765181406.25,-19,-23,-52,0,0,0,0,0
1564765181437.5,-21,-23,-56,0,0,0,0,0
1564765181468.75,-17,-21,-52,0,0,0,0,0
1564765181500,-19,-22,-52,0,0,0,0,0
1564765181531.25,-24,-23,-56,0,0,0,0,0
1564765181562.5,-24,-24,-57,0,0,0,0,0
1564765181593.75,-23,-26,-57,0,0,0,0,0
1564765181625,-20,-26,-56,0,0,0,0,0
1564765181656.25,-21,-27,-60,0,0,0,0,0
1564765181687.5,-19,-25,-50,0,0,0,0,0
1564765181718.75,-18,-25,-49,0,0,0,0,0
1564765181750,-21,-19,-46,0,0,0,0,0
1564765181781.25,-23,-21,-51,0,0,0,0,0
1564765181812.5,-24,-25,-54,0,0,0,0,0
1564765181843.75,-23,-26,-53,0,0,0,0,0
1564765181875,-24,-28,-58,0,0,0,0,0
1564765181906.25,-29,-12,-52,0,0,0,0,0
1564765181937.5,-19,-22,-54,0,0,0,0,0
1564765181968.75,-23,-22,-50,0,0,0,0,0
1564765182000,-23,-23,-47,0,0,0,0,0
1564765182031.25,-20,-25,-55,0,0,0,0,0
1564765182062.5,-22,-27,-52,0,0,0,0,0
1564765182093.75,-21,-28,-59,0,0,0,0,0
1564765182125,-20,-26,-58,0,0,0,0,0
1564765182156.25,-22,-21,-52,0,0,0,0,0
1564765182187.5,-24,-21,-50,0,0,0,0,0
1564765182218.75,-30,-19,-50,0,0,0,0,0
1564765182250,-31,-20,-52,0,0,0,0,0
1564765182281.25,-22,-23,-54,0,0,0,0,0
1564765182312.5,-24,-23,-58,0,0,0,0,0
1564765182343.75,-23,-23,-56,0,0,0,0,0
1564765182375,-28,-22,-51,0,0,0,0,0
1564765182406.25,-30,-21,-53,0,0,0,0,0
1564765182437.5,-27,-18,-51,0,0,0,0,0
1564765182468.75,-26,-20,-52,0,0,0,0,0
1564765182500,-22,-17,-53,0,0,0,0,0
1564765182531.25,-18,-19,-49,0,0,0,0,0
1564765182562.5,-23,-18,-57,0,0,0,0,0
1564765182593.75,-21,-15,-56,0,0,0,0,0
1564765182625,-19,-14,-66,0,0,0,0,0
1564765182656.25,-23,-13,-56,0,0,0,0,0
1564765182687.5,-20,-14,-55,0,0,0,0,0
1564765182718.75,-22,-18,-60,0,0,0,0,0
1564765182750,-21,-17,-65,0,0,0,0,0
1564765182781.25,-17,-14,-61,0,0,0,0,0
1564765182812.5,-20,-16,-54,0,0,0,0,0
1564765182843.75,-22,-10,-56,0,0,0,0,0
1564765182875,-21,-14,-58,0,0,0,0,0
1564765182906.25,-21,-15,-61,0,0,0,0,0
1564765182937.5,-19,-14,-57,0,0,0,0,0
1564765182968.75,-26,-12,-65,0,0,0,0,0
1564765183000,-22,-11,-57,0,0,0,0,0
1564765183031.25,-21,-11,-58,0,0,0,0,0
1564765183062.5,-21,-14,-61,0,0,0,0,0
1564765183093.75,-21,-14,-61,0,0,0,0,0
1564765183125,-21,-14,-60,0,0,0,0,0
1564765183156.25,-24,-11,-61,0,0,0,0,0
1564765183187.5,-24,-11,-62,0,0,0,0,0
1564765183218.75,-24,-13,-55,0,0,0,0,0
1564765183250,-26,-16,-53,0,0,0,0,0
1564765183281.25,-25,-17,-51,0,0,0,0,0
1564765183312.5,-28,-19,-52,0,0,0,0,0
1564765183343.75,-28,-19,-56,0,0,0,0,0
1564765183375,-27,-16,-58,0,0,0,0,0
1564765183406.25,-29,-18,-58,0,0,0,0,0
1564765183437.5,-27,-12,-54,0,0,0,0,0
1564765183468.75,-27,-18,-56,0,0,0,0,0
1564765183500,-32,-20,-56,0,0,0,0,0
1564765183531.25,-30,-13,-50,0,0,0,0,0
1564765183562.5,-31,-15,-50,0,0,0,0,0
1564765183593.75,-34,-15,-49,0,0,0,0,0
1564765183625,-33,-14,-49,0,0,0,0,0
1564765183656.25,-34,-16,-50,0,0,0,0,0
1564765183687.5,-33,-13,-48,0,0,0,0,0
1564765183718.75,-39,-15,-47,0,0,0,0,0
1564765183750,-37,-13,-49,0,0,0,0,0
1564765183781.25,-42,-15,-49,0,0,0,0,0
1564765183812.5,-45,-8,-39,0,0,0,0,0
1564765183843.75,-42,-14,-47,0,0,0,0,0
1564765183875,-47,-15,-45,0,0,0,0,0
1564765183906.25,-47,-14,-43,0,0,0,0,0
1564765183937.5,-48,-14,-45,0,0,0,0,0
1564765183968.75,-53,-9,-47,0,0,0,0,0
1564765184000,-57,-8,-47,0,0,0,0,0
1564765184031.25,-57,-6,-32,0,0,0,0,0
1564765184062.5,-58,-3,-23,0,0,0,0,0
1564765184093.75,-51,-5,-9,0,0,0,0,0
1564765184125,-54,-6,-3,0,0,0,0,0
1564765184156.25,-63,-1,3,0,0,0,0,0
1564765184187.5,-60,0,14,0,0,0,0,0
1564765184218.75,-60,3,29,0,0,0,0,0
1564765184250,-60,-1,30,0,0,0,0,0
1564765184281.25,-58,3,43,0,0,0,0,0
1564765184312.5,-30,-3,63,0,0,0,0,0
1564765184343.75,-20,-7,65,0,0,0,0,0
1564765184375,-19,-1,67,0,0,0,0,0
1564765184406.25,-21,-1,64,0,0,0,0,0
1564765184437.5,-32,2,55,0,0,0,0,0
1564765184468.75,-35,1,55,0,0,0,0,0
1564765184500,-25,-3,55,0,0,0,0,0
1564765184531.25,-30,0,52,0,0,0,0,0
1564765184562.5,-12,0,58,0,0,0,0,0
1564765184593.75,-25,2,57,0,0,0,0,0
1564765184625,-26,1,52,0,0,0,0,0
1564765184656.25,-19,0,55,0,0,0,0,0
1564765184687.5,-14,0,59,0,0,0,0,0
1564765184718.75,-18,-1,64,0,0,0,0,0
1564765184750,-12,3,59,0,0,0,0,0
1564765184781.25,-9,7,60,0,0,0,0,0
1564765184812.5,-8,6,56,0,0,0,0,0
1564765184843.75,-3,4,53,0,0,0,0,0
1564765184875,0,8,54,0,0,0,0,0
1564765184906.25,2,16,55,0,0,0,0,0
1564765184937.5,3,20,57,0,0,0,0,0
1564765184968.75,0,33,57,0,0,0,0,0
1564765185000,15,29,59,0,0,0,0,0
1564765185031.25,23,30,63,0,0,0,0,0
1564765185062.5,25,31,61,0,0,0,0,0
1564765185093.75,18,31,60,0,0,0,0,0
1564765185125,0,21,45,0,0,0,0,0
1564765185156.25,16,33,63,0,0,0,0,0
1564765185187.5,18,29,67,0,0,0,0,0
1564765185218.75,19,30,69,0,0,0,0,0
1564765185250,13,33,62,0,0,0,0,0
1564765185281.25,3,32,54,0,0,0,0,0
1564765185312.5,2,26,49,0,0,0,0,0
1564765185343.75,4,28,45,0,0,0,0,0
1564765185375,-1,32,42,0,0,0,0,0
1564765185406.25,22,29,54,0,0,0,0,0
1564765185437.5,16,33,55,0,0,0,0,0
1564765185468.75,7,28,57,0,0,0,0,0
1564765185500,6,28,57,0,0,0,0,0
1564765185531.25,4,29,59,0,0,0,0,0
1564765185562.5,6,31,63,0,0,0,0,0
1564765185593.75,11,32,61,0,0,0,0,0
1564765185625,8,32,59,0,0,0,0,0
1564765185656.25,8,29,57,0,0,0,0,0
1564765185687.5,9,31,56,0,0,0,0,0
1564765185718.75,9,31,55,0,0,0,0,0
1564765185750,10,31,56,0,0,0,0,0
1564765185781.25,9,33,57,0,0,0,0,0
1564765185812.5,7,33,55,0,0,0,0,0
1564765185843.75,5,34,56,0,0,0,0,0
1564765185875,7,34,56,0,0,0,0,0
1564765185906.25,12,33,56,0,0,0,0,0
1564765185937.5,1,31,54,0,0,0,0,0
1564765185968.75,-3,30,58,0,0,0,0,0
1564765186000,-1,31,58,0,0,0,0,0
1564765186031.25,-2,31,58,0,0,0,0,0
1564765186062.5,0,29,57,0,0,0,0,0
1564765186093.75,-2,32,58,0,0,0,0,0
1564765186125,0,31,57,0,0,0,0,0
1564765186156.25,-2,31,57,0,0,0,0,0
1564765186187.5,-1,30,57,0,0,0,0,0
1564765186218.75,-11,28,56,0,0,0,0,0
1564765186250,-10,27,56,0,0,0,0,0
1564765186281.25,-8,30,60,0,0,0,0,0
1564765186312.5,-5,30,58,0,0,0,0,0
1564765186343.75,-6,30,57,0,0,0,0,0
1564765186375,-10,29,54,0,0,0,0,0
1564765186406.25,-9,29,54,0,0,0,0,0
1564765186437.5,-8,28,54,0,0,0,0,0
1564765186468.75,-2,28,57,0,0,0,0,0
1564765186500,3,29,60,0,0,0,0,0
1564765186531.25,1,29,59,0,0,0,0,0
1564765186562.5,3,31,60,0,0,0,0,0
1564765186593.75,5,32,59,0,0,0,0,0
1564765186625,2,30,56,0,0,0,0,0
1564765186656.25,-7,33,54,0,0,0,0,0
1564765186687.5,-28,35,51,0,0,0,0,0
1564765186718.75,-35,28,48,0,0,0,0,0
1564765186750,-32,34,52,0,0,0,0,0
1564765186781.25,-16,28,50,0,0,0,0,0
1564765186812.5,-10,27,52,0,0,0,0,0
1564765186843.75,-5,31,57,0,0,0,0,0
1564765186875,-6,32,58,0,0,0,0,0
1564765186906.25,-8,32,57,0,0,0,0,0
1564765186937.5,-9,33,54,0,0,0,0,0
1564765186968.75,-8,32,49,0,0,0,0,0
1564765187000,-7,34,51,0,0,0,0,0
1564765187031.25,-4,36,53,0,0,0,0,0
1564765187062.5,-2,37,53,0,0,0,0,0
1564765187093.75,2,36,54,0,0,0,0,0
1564765187125,5,33,54,0,0,0,0,0
1564765187156.25,2,31,57,0,0,0,0,0
1564765187187.5,2,38,51,0,0,0,0,0
1564765187218.75,-6,37,49,0,0,0,0,0
1564765187250,-11,43,47,0,0,0,0,0
1564765187281.25,1,42,56,0,0,0,0,0
1564765187312.5,-4,48,52,0,0,0,0,0
1564765187343.75,-8,43,47,0,0,0,0,0
1564765187375,-5,43,49,0,0,0,0,0
1564765187406.25,-7,42,52,0,0,0,0,0
1564765187437.5,-9,42,50,0,0,0,0,0
1564765187468.75,-13,37,45,0,0,0,0,0
1564765187500,3,45,56,0,0,0,0,0
1564765187531.25,-12,41,50,0,0,0,0,0
1564765187562.5,-11,41,50,0,0,0,0,0
1564765187593.75,-10,41,52,0,0,0,0,0
1564765187625,-10,39,51,0,0,0,0,0
1564765187656.25,-10,39,52,0,0,0,0,0
1564765187687.5,-18,39,44,0,0,0,0,0
1564765187718.75,-11,38,52,0,0,0,0,0
1564765187750,-12,40,51,0,0,0,0,0
1564765187781.25,-13,40,50,0,0,0,0,0
1564765187812.5,-11,39,52,0,0,0,0,0
1564765187843.75,-10,39,54,0,0,0,0,0
1564765187875,-9,38,52,0,0,0,0,0
1564765187906.25,-8,36,52,0,0,0,0,0
1564765187937.5,-9,32,51,0,0,0,0,0
1564765187968.75,-11,31,53,0,0,0,0,0
1564765188000,-12,34,54,0,0,0,0,0
1564765188031.25,-6,40,57,0,0,0,0,0
1564765188062.5,-3,39,54,0,0,0,0,0
1564765188093.75,-9,37,51,0,0,0,0,0
1564765188125,-13,37,50,0,0,0,0,0
1564765188156.25,-16,34,52,0,0,0,0,0
1564765188187.5,-16,33,52,0,0,0,0,0
1564765188218.75,-13,34,53,0,0,0,0,0
1564765188250,-12,35,54,0,0,0,0,0
1564765188281.25,-12,36,54,0,0,0,0,0
1564765188312.5,-14,35,53,0,0,0,0,0
1564765188343.75,-14,34,52,0,0,0,0,0
1564765188375,-14,33,53,0,0,0,0,0
1564765188406.25,-13,32,53,0,0,0,0,0
1564765188437.5,-14,31,54,0,0,0,0,0
1564765188468.75,-14,31,53,0,0,0,0,0
1564765188500,-11,32,53,0,0,0,0,0
1564765188531.25,-12,34,53,0,0,0,0,0
1564765188562.5,-12,38,52,0,0,0,0,0
1564765188593.75,-12,41,57,0,0,0,0,0
1564765188625,-11,41,55,0,0,0,0,0
1564765188656.25,-9,37,48,0,0,0,0,0
1564765188687.5,-8,36,48,0,0,0,0,0
1564765188718.75,-9,39,52,0,0,0,0,0
1564765188750,-8,37,53,0,0,0,0,0
1564765188781.25,-12,39,55,0,0,0,0,0
1564765188812.5,-11,37,55,0,0,0,0,0
1564765188843.75,-6,38,52,0,0,0,0,0
1564765188875,-15,40,51,0,0,0,0,0
1564765188906.25,-5,42,56,0,0,0,0,0
1564765188937.5,-1,41,57,0,0,0,0,0
1564765188968.75,-8,40,56,0,0,0,0,0
1564765189000,-7,40,58,0,0,0,0,0
1564765189031.25,-3,42,63,0,0,0,0,0
1564765189062.5,38,55,92,0,0,0,0,0
1564765189093.75,27,74,112,0,0,0,0,0
1564765189125,-49,61,86,0,0,0,0,0
1564765189156.25,-12,43,101,0,0,0,0,0
1564765189187.5,3,22,61,0,0,0,0,0
1564765189218.75,4,10,47,0,0,0,0,0
1564765189250,-5,-1,28,0,0,0,0,0
1564765189281.25,-1,-7,22,0,0,0,0,0
1564765189312.5,22,-4,23,0,0,0,0,0
1564765189343.75,20,6,34,0,0,0,0,0
1564765189375,19,8,41,0,0,0,0,0
1564765189406.25,17,17,40,0,0,0,0,0
1564765189437.5,28,11,67,0,0,0,0,0
1564765189468.75,25,18,53,0,0,0,0,0
1564765189500,22,16,54,0,0,0,0,0
1564765189531.25,17,11,54,0,0,0,0,0
1564765189562.5,18,9,55,0,0,0,0,0
1564765189593.75,26,10,65,0,0,0,0,0
1564765189625,21,12,69,0,0,0,0,0
1564765189656.25,5,12,66,0,0,0,0,0
1564765189687.5,-39,6,44,0,0,0,0,0
1564765189718.75,-52,0,27,0,0,0,0,0
1564765189750,-69,-12,-2,0,0,0,0,0
1564765189781.25,-66,-14,-4,0,0,0,0,0
1564765189812.5,-56,-7,24,0,0,0,0,0
1564765189843.75,-65,-1,34,0,0,0,0,0
1564765189875,-71,4,37,0,0,0,0,0
1564765189906.25,-71,2,26,0,0,0,0,0
1564765189937.5,-65,0,19,0,0,0,0,0
1564765189968.75,-51,-6,15,0,0,0,0,0
1564765190000,-50,-7,17,0,0,0,0,0
1564765190031.25,-57,-6,20,0,0,0,0,0
1564765190062.5,-60,-6,17,0,0,0,0,0
1564765190093.75,-68,-7,10,0,0,0,0,0
1564765190125,-69,-8,7,0,0,0,0,0
1564765190156.25,-67,-8,11,0,0,0,0,0
1564765190187.5,-61,-7,16,0,0,0,0,0
1564765190218.75,-60,-6,18,0,0,0,0,0
1564765190250,-67,-4,18,0,0,0,0,0
1564765190281.25,-83,-4,11,0,0,0,0,0
1564765190312.5,-55,-6,-30,0,0,0,0,0
1564765190343.75,4,-12,-32,0,0,0,0,0
1564765190375,127,-3,42,0,0,0,0,0
1564765190406.25,127,10,70,0,0,0,0,0
1564765190437.5,9,9,63,0,0,0,0,0
1564765190468.75,-13,9,67,0,0,0,0,0
1564765190500,19,5,66,0,0,0,0,0
1564765190531.25,39,1,63,0,0,0,0,0
1564765190562.5,17,1,53,0,0,0,0,0
1564765190593.75,4,4,53,0,0,0,0,0
1564765190625,20,8,57,0,0,0,0,0
1564765190656.25,38,13,63,0,0,0,0,0
1564765190687.5,34,14,64,0,0,0,0,0
1564765190718.75,25,13,63,0,0,0,0,0
1564765190750,25,12,61,0,0,0,0,0
1564765190781.25,21,9,58,0,0,0,0,0
1564765190812.5,17,8,56,0,0,0,0,0
1564765190843.75,20,9,56,0,0,0,0,0
1564765190875,23,9,57,0,0,0,0,0
1564765190906.25,25,10,58,0,0,0,0,0
1564765190937.5,25,10,58,0,0,0,0,0
1564765190968.75,22,6,58,0,0,0,0,0
1564765191000,18,6,58,0,0,0,0,0
1564765191031.25,18,5,57,0,0,0,0,0
1564765191062.5,18,5,58,0,0,0,0,0
1564765191093.75,18,6,59,0,0,0,0,0
1564765191125,19,7,61,0,0,0,0,0
1564765191156.25,19,7,62,0,0,0,0,0
1564765191187.5,18,9,64,0,0,0,0,0
1564765191218.75,17,10,65,0,0,0,0,0
1564765191250,18,11,65,0,0,0,0,0
1564765191281.25,18,11,65,0,0,0,0,0
1564765191312.5,17,11,64,0,0,0,0,0
1564765191343.75,15,10,63,0,0,0,0,0
1564765191375,14,10,62,0,0,0,0,0
1564765191406.25,13,10,63,0,0,0,0,0
1564765191437.5,12,10,62,0,0,0,0,0
1564765191468.75,12,10,63,0,0,0,0,0
1564765191500,13,10,64,0,0,0,0,0
1564765191531.25,13,9,64,0,0,0,0,0
1564765191562.5,13,9,63,0,0,0,0,0
1564765191593.75,12,8,63,0,0,0,0,0
1564765191625,11,8,64,0,0,0,0,0
1564765191656.25,10,8,64,0,0,0,0,0
1564765191687.5,8,8,64,0,0,0,0,0
1564765191718.75,7,8,64,0,0,0,0,0
1564765191750,6,8,63,0,0,0,0,0
1564765191781.25,6,8,63,0,0,0,0,0
1564765191812.5,9,9,63,0,0,0,0,0
1564765191843.75,11,9,64,0,0,0,0,0
1564765191875,6,8,63,0,0,0,0,0
1564765191906.25,-5,8,50,0,0,0,0,0
1564765191937.5,-28,5,53,0,0,0,0,0
1564765191968.75,-29,6,55,0,0,0,0,0
1564765192000,-32,6,51,0,0,0,0,0
1564765192031.25,-42,8,47,0,0,0,0,0
1564765192062.5,-45,8,45,0,0,0,0,0
1564765192093.75,-49,8,42,0,0,0,0,0
1564765192125,-48,8,41,0,0,0,0,0
1564765192156.25,-35,7,37,0,0,0,0,0
1564765192187.5,-29,9,35,0,0,0,0,0
1564765192218.75,-26,16,28,0,0,0,0,0
1564765192250,-31,18,20,0,0,0,0,0
1564765192281.25,-35,23,8,0,0,0,0,0
1564765192312.5,-57,33,3,0,0,0,0,0
1564765192343.75,-128,64,107,0,0,0,0,0
1564765192375,-80,35,43,0,0,0,0,0
1564765192406.25,-82,4,20,0,0,0,0,0
1564765192437.5,6,13,42,0,0,0,0,0
1564765192468.75,9,17,53,0,0,0,0,0
1564765192500,4,17,72,0,0,0,0,0
1564765192531.25,-12,15,67,0,0,0,0,0
1564765192562.5,-49,16,47,0,0,0,0,0
1564765192593.75,-51,19,41,0,0,0,0,0
1564765192625,-42,29,36,0,0,0,0,0
1564765192656.25,-35,41,56,0,0,0,0,0
1564765192687.5,-41,44,72,0,0,0,0,0
1564765192718.75,-42,21,38,0,0,0,0,0
1564765192750,-4,23,50,0,0,0,0,0
1564765192781.25,34,22,64,0,0,0,0,0
1564765192812.5,19,28,63,0,0,0,0,0
1564765192843.75,-16,27,59,0,0,0,0,0
1564765192875,-19,25,59,0,0,0,0,0
1564765192906.25,-19,19,64,0,0,0,0,0
1564765192937.5,-20,13,66,0,0,0,0,0
1564765192968.75,-13,15,65,0,0,0,0,0
1564765193000,-27,19,52,0,0,0,0,0
1564765193031.25,-25,19,48,0,0,0,0,0
1564765193062.5,-26,19,47,0,0,0,0,0
1564765193093.75,-31,18,51,0,0,0,0,0
1564765193125,-42,13,51,0,0,0,0,0
1564765193156.25,-43,12,51,0,0,0,0,0
1564765193187.5,-36,12,50,0,0,0,0,0
1564765193218.75,-36,12,50,0,0,0,0,0
1564765193250,-40,18,45,0,0,0,0,0
1564765193281.25,-37,18,46,0,0,0,0,0
1564765193312.5,-39,15,48,0,0,0,0,0
1564765193343.75,-42,14,51,0,0,0,0,0
1564765193375,-40,14,50,0,0,0,0,0
1564765193406.25,-39,14,49,0,0,0,0,0
1564765193437.5,-39,13,47,0,0,0,0,0
1564765193468.75,-36,13,48,0,0,0,0,0
1564765193500,-41,17,48,0,0,0,0,0
1564765193531.25,-39,16,47,0,0,0,0,0
1564765193562.5,-38,11,44,0,0,0,0,0
1564765193593.75,-59,14,35,0,0,0,0,0
1564765193625,-57,13,31,0,0,0,0,0
1564765193656.25,-59,15,31,0,0,0,0,0
1564765193687.5,-52,16,34,0,0,0,0,0
1564765193718.75,-52,16,32,0,0,0,0,0
1564765193750,-61,17,28,0,0,0,0,0
1564765193781.25,-59,17,28,0,0,0,0,0
1564765193812.5,-51,19,33,0,0,0,0,0
1564765193843.75,-49,18,33,0,0,0,0,0
1564765193875,-54,20,32,0,0,0,0,0
1564765193906.25,-54,21,33,0,0,0,0,0
1564765193937.5,-48,19,36,0,0,0,0,0
1564765193968.75,-52,19,33,0,0,0,0,0
1564765194000,-53,19,32,0,0,0,0,0
1564765194031.25,-58,23,28,0,0,0,0,0
1564765194062.5,-56,23,28,0,0,0,0,0
1564765194093.75,-58,24,24,0,0,0,0,0
1564765194125,-56,25,31,0,0,0,0,0
1564765194156.25,-64,30,33,0,0,0,0,0
1564765194187.5,-64,32,37,0,0,0,0,0
1564765194218.75,-68,25,31,0,0,0,0,0
1564765194250,-65,22,26,0,0,0,0,0
1564765194281.25,-60,23,31,0,0,0,0,0
1564765194312.5,-53,20,32,0,0,0,0,0
1564765194343.75,-41,15,39,0,0,0,0,0
1564765194375,-22,0,48,0,0,0,0,0
1564765194406.25,-27,-4,55,0,0,0,0,0
1564765194437.5,-28,-13,60,0,0,0,0,0
1564765194468.75,-27,-14,61,0,0,0,0,0
1564765194500,-31,-9,62,0,0,0,0,0
1564765194531.25,-35,-10,59,0,0,0,0,0
1564765194562.5,-38,-7,55,0,0,0,0,0
1564765194593.75,-36,-7,48,0,0,0,0,0
1564765194625,-84,-9,21,0,0,0,0,0
1564765194656.25,-25,1,54,0,0,0,0,0
1564765194687.5,-19,-6,58,0,0,0,0,0
1564765194718.75,-13,-11,58,0,0,0,0,0
1564765194750,-30,-8,51,0,0,0,0,0
1564765194781.25,-35,-3,55,0,0,0,0,0
1564765194812.5,-53,11,49,0,0,0,0,0
1564765194843.75,-56,6,45,0,0,0,0,0
1564765194875,-52,1,34,0,0,0,0,0
1564765194906.25,-45,-9,31,0,0,0,0,0
1564765194937.5,-31,-3,44,0,0,0,0,0
1564765194968.75,-43,2,30,0,0,0,0,0
1564765195000,-59,19,38,0,0,0,0,0
1564765195031.25,-53,21,47,0,0,0,0,0
1564765195062.5,-52,-11,33,0,0,0,0,0
1564765195093.75,-28,48,61,0,0,0,0,0
1564765195125,-30,19,52,0,0,0,0,0
1564765195156.25,-19,23,60,0,0,0,0,0
1564765195187.5,-20,23,65,0,0,0,0,0
1564765195218.75,-20,22,69,0,0,0,0,0
1564765195250,-26,18,60,0,0,0,0,0
1564765195281.25,-24,18,57,0,0,0,0,0
1564765195312.5,-6,15,55,0,0,0,0,0
1564765195343.75,-5,13,54,0,0,0,0,0
1564765195375,-5,14,52,0,0,0,0,0
1564765195406.25,-1,20,53,0,0,0,0,0
1564765195437.5,4,20,55,0,0,0,0,0
1564765195468.75,5,15,61,0,0,0,0,0
1564765195500,6,19,60,0,0,0,0,0
1564765195531.25,10,21,60,0,0,0,0,0
1564765195562.5,15,25,61,0,0,0,0,0
1564765195593.75,13,24,58,0,0,0,0,0
1564765195625,13,23,49,0,0,0,0,0
1564765195656.25,15,24,50,0,0,0,0,0
1564765195687.5,21,27,54,0,0,0,0,0
1564765195718.75,18,27,53,0,0,0,0,0
1564765195750,24,27,48,0,0,0,0,0
1564765195781.25,28,31,47,0,0,0,0,0
1564765195812.5,33,34,50,0,0,0,0,0
1564765195843.75,29,35,50,0,0,0,0,0
1564765195875,30,26,52,0,0,0,0,0
1564765195906.25,34,14,51,0,0,0,0,0
1564765195937.5,29,36,58,0,0,0,0,0
1564765195968.75,25,35,53,0,0,0,0,0
1564765196000,23,34,50,0,0,0,0,0
1564765196031.25,24,33,47,0,0,0,0,0
1564765196062.5,26,33,41,0,0,0,0,0
1564765196093.75,31,37,48,0,0,0,0,0
1564765196125,29,41,49,0,0,0,0,0
1564765196156.25,36,41,42,0,0,0,0,0
1564765196187.5,36,35,49,0,0,0,0,0
1564765196218.75,30,37,47,0,0,0,0,0
1564765196250,28,34,50,0,0,0,0,0
1564765196281.25,25,31,45,0,0,0,0,0
1564765196312.5,23,35,46,0,0,0,0,0
1564765196343.75,22,33,44,0,0,0,0,0
1564765196375,18,34,50,0,0,0,0,0
1564765196406.25,21,33,48,0,0,0,0,0
1564765196437.5,12,32,38,0,0,0,0,0
1564765196468.75,16,34,43,0,0,0,0,0
1564765196500,23,36,41,0,0,0,0,0
1564765196531.25,19,29,40,0,0,0,0,0
1564765196562.5,15,34,62,0,0,0,0,0
1564765196593.75,22,35,62,0,0,0,0,0
1564765196625,20,33,62,0,0,0,0,0
1564765196656.25,12,31,58,0,0,0,0,0
1564765196687.5,16,33,58,0,0,0,0,0
1564765196718.75,-11,52,61,0,0,0,0,0
1564765196750,21,19,52,0,0,0,0,0
1564765196781.25,11,32,58,0,0,0,0,0
1564765196812.5,9,32,56,0,0,0,0,0
1564765196843.75,3,27,52,0,0,0,0,0
1564765196875,7,25,53,0,0,0,0,0
1564765196906.25,10,22,54,0,0,0,0,0
1564765196937.5,11,23,56,0,0,0,0,0
1564765196968.75,-7,24,57,0,0,0,0,0
1564765197000,-15,21,47,0,0,0,0,0
1564765197031.25,16,19,50,0,0,0,0,0
1564765197062.5,-35,11,28,0,0,0,0,0
1564765197093.75,-26,30,47,0,0,0,0,0
1564765197125,-19,22,30,0,0,0,0,0
1564765197156.25,-8,31,44,0,0,0,0,0
1564765197187.5,2,48,116,0,0,0,0,0
1564765197218.75,-36,59,102,0,0,0,0,0
1564765197250,-9,27,66,0,0,0,0,0
1564765197281.25,-23,31,43,0,0,0,0,0
1564765197312.5,-24,30,33,0,0,0,0,0
1564765197343.75,-23,38,51,0,0,0,0,0
1564765197375,-21,32,53,0,0,0,0,0
1564765197406.25,-8,39,53,0,0,0,0,0
1564765197437.5,3,38,60,0,0,0,0,0
1564765197468.75,-15,43,51,0,0,0,0,0
1564765197500,-15,38,50,0,0,0,0,0
1564765197531.25,-13,34,43,0,0,0,0,0
1564765197562.5,-8,38,47,0,0,0,0,0
1564765197593.75,-5,41,49,0,0,0,0,0
1564765197625,-8,45,44,0,0,0,0,0
1564765197656.25,-4,41,45,0,0,0,0,0
1564765197687.5,-7,46,48,0,0,0,0,0
1564765197718.75,-3,46,47,0,0,0,0,0
1564765197750,-2,52,43,0,0,0,0,0
1564765197781.25,3,46,42,0,0,0,0,0
1564765197812.5,7,48,46,0,0,0,0,0
1564765197843.75,8,57,47,0,0,0,0,0
1564765197875,11,50,45,0,0,0,0,0
1564765197906.25,8,47,43,0,0,0,0,0
1564765197937.5,14,48,44,0,0,0,0,0
1564765197968.75,8,47,49,0,0,0,0,0
1564765198000,5,45,51,0,0,0,0,0
1564765198031.25,6,44,47,0,0,0,0,0
1564765198062.5,4,42,47,0,0,0,0,0
1564765198093.75,5,43,51,0,0,0,0,0
1564765198125,5,42,50,0,0,0,0,0
1564765198156.25,5,43,48,0,0,0,0,0
1564765198187.5,4,42,49,0,0,0,0,0
1564765198218.75,6,38,50,0,0,0,0,0
1564765198250,5,40,52,0,0,0,0,0
1564765198281.25,2,40,54,0,0,0,0,0
1564765198312.5,-1,34,52,0,0,0,0,0
1564765198343.75,-5,34,50,0,0,0,0,0
1564765198375,-4,39,53,0,0,0,0,0
1564765198406.25,-3,38,53,0,0,0,0,0
1564765198437.5,-1,34,52,0,0,0,0,0
1564765198468.75,2,32,53,0,0,0,0,0
1564765198500,1,36,59,0,0,0,0,0
1564765198531.25,-3,34,57,0,0,0,0,0
1564765198562.5,-4,28,52,0,0,0,0,0
1564765198593.75,-4,30,59,0,0,0,0,0
1564765198625,-5,27,58,0,0,0,0,0
1564765198656.25,-6,30,62,0,0,0,0,0
1564765198687.5,-6,25,54,0,0,0,0,0
1564765198718.75,-13,26,52,0,0,0,0,0
1564765198750,-10,29,59,0,0,0,0,0
1564765198781.25,-10,21,59,0,0,0,0,0
1564765198812.5,-10,15,58,0,0,0,0,0
1564765198843.75,-10,28,73,0,0,0,0,0
1564765198875,-4,21,70,0,0,0,0,0
1564765198906.25,-27,28,40,0,0,0,0,0
1564765198937.5,-35,27,21,0,0,0,0,0
1564765198968.75,-44,23,10,0,0,0,0,0
1564765199000,-56,19,-6,0,0,0,0,0
1564765199031.25,-60,14,-14,0,0,0,0,0
1564765199062.5,-68,12,-8,0,0,0,0,0
1564765199093.75,-70,10,-11,0,0,0,0,0
1564765199125,-61,6,-11,0,0,0,0,0
1564765199156.25,-59,6,-16,0,0,0,0,0
1564765199187.5,-57,4,-29,0,0,0,0,0
1564765199218.75,-57,4,-36,0,0,0,0,0
1564765199250,-56,4,-35,0,0,0,0,0
1564765199281.25,-52,4,-36,0,0,0,0,0
1564765199312.5,-49,2,-39,0,0,0,0,0
1564765199343.75,-46,-1,-53,0,0,0,0,0
1564765199375,-40,0,-51,0,0,0,0,0
1564765199406.25,-46,4,-46,0,0,0,0,0
1564765199437.5,-54,7,-42,0,0,0,0,0
1564765199468.75,-45,4,-39,0,0,0,0,0
1564765199500,-43,3,-39,0,0,0,0,0
1564765199531.25,-46,3,-48,0,0,0,0,0
1564765199562.5,-47,4,-49,0,0,0,0,0
1564765199593.75,-42,6,-53,0,0,0,0,0
1564765199625,-38,3,-50,0,0,0,0,0
1564765199656.25,-38,5,-50,0,0,0,0,0
1564765199687.5,-37,4,-54,0,0,0,0,0
1564765199718.75,-37,4,-50,0,0,0,0,0
1564765199750,-41,3,-55,0,0,0,0,0
1564765199781.25,-42,3,-50,0,0,0,0,0
1564765199812.5,-38,3,-50,0,0,0,0,0
1564765199843.75,-38,3,-45,0,0,0,0,0
1564765199875,-39,3,-52,0,0,0,0,0
1564765199906.25,-40,4,-54,0,0,0,0,0
1564765199937.5,-42,5,-47,0,0,0,0,0
1564765199968.75,-42,2,-54,0,0,0,0,0
1564765200000,-41,3,-51,0,0,0,0,0
1564765200031.25,-41,5,-46,0,0,0,0,0
1564765200062.5,-42,5,-46,0,0,0,0,0
1564765200093.75,-42,4,-50,0,0,0,0,0
1564765200125,-41,3,-47,0,0,0,0,0
1564765200156.25,-40,3,-49,0,0,0,0,0
1564765200187.5,-42,5,-47,0,0,0,0,0
1564765200218.75,-41,3,-48,0,0,0,0,0
1564765200250,-42,2,-49,0,0,0,0,0
1564765200281.25,-41,1,-49,0,0,0,0,0
1564765200312.5,-41,1,-54,0,0,0,0,0
1564765200343.75,-41,1,-49,0,0,0,0,0
1564765200375,-41,-1,-46,0,0,0,0,0
1564765200406.25,-41,-2,-49,0,0,0,0,0
1564765200437.5,-43,-1,-45,0,0,0,0,0
1564765200468.75,-43,-3,-40,0,0,0,0,0
1564765200500,-47,-2,-43,0,0,0,0,0
1564765200531.25,-45,2,-45,0,0,0,0,0
1564765200562.5,-45,8,-51,0,0,0,0,0
1564765200593.75,-41,4,-51,0,0,0,0,0
1564765200625,-41,3,-50,0,0,0,0,0
1564765200656.25,-41,2,-52,0,0,0,0,0
1564765200687.5,-40,3,-49,0,0,0,0,0
1564765200718.75,-39,2,-48,0,0,0,0,0
1564765200750,-41,2,-48,0,0,0,0,0
1564765200781.25,-42,0,-49,0,0,0,0,0
1564765200812.5,-40,1,-49,0,0,0,0,0
1564765200843.75,-38,1,-49,0,0,0,0,0
1564765200875,-38,1,-51,0,0,0,0,0
1564765200906.25,-37,1,-49,0,0,0,0,0
1564765200937.5,-40,0,-51,0,0,0,0,0
1564765200968.75,-41,1,-50,0,0,0,0,0
1564765201000,-39,1,-50,0,0,0,0,0
1564765201031.25,-40,2,-51,0,0,0,0,0
1564765201062.5,-43,0,-53,0,0,0,0,0
1564765201093.75,-42,0,-51,0,0,0,0,0
1564765201125,-42,1,-45,0,0,0,0,0
1564765201156.25,-43,0,-44,0,0,0,0,0
1564765201187.5,-47,2,-38,0,0,0,0,0
1564765201218.75,-57,-4,-47,0,0,0,0,0
1564765201250,-52,1,-51,0,0,0,0,0
1564765201281.25,-51,-3,-56,0,0,0,0,0
1564765201312.5,-64,5,-55,0,0,0,0,0
1564765201343.75,-58,6,-20,0,0,0,0,0
1564765201375,-59,3,-16,0,0,0,0,0
1564765201406.25,-39,0,15,0,0,0,0,0
1564765201437.5,-51,11,21,0,0,0,0,0
1564765201468.75,-45,22,52,0,0,0,0,0
1564765201500,-60,16,42,0,0,0,0,0
1564765201531.25,-47,10,33,0,0,0,0,0
1564765201562.5,-46,11,32,0,0,0,0,0
1564765201593.75,-45,19,40,0,0,0,0,0
1564765201625,-31,17,54,0,0,0,0,0
1564765201656.25,-30,17,57,0,0,0,0,0
1564765201687.5,-44,21,55,0,0,0,0,0
1564765201718.75,-41,22,51,0,0,0,0,0
1564765201750,-31,21,48,0,0,0,0,0
1564765201781.25,-28,18,46,0,0,0,0,0
1564765201812.5,-38,16,43,0,0,0,0,0
1564765201843.75,-46,19,44,0,0,0,0,0
1564765201875,-63,24,45,0,0,0,0,0
1564765201906.25,-26,20,48,0,0,0,0,0
1564765201937.5,-25,24,53,0,0,0,0,0
1564765201968.75,-33,23,55,0,0,0,0,0
1564765202000,-38,27,53,0,0,0,0,0
1564765202031.25,-33,23,49,0,0,0,0,0
1564765202062.5,-27,28,57,0,0,0,0,0
1564765202093.75,-40,21,36,0,0,0,0,0
1564765202125,-25,23,50,0,0,0,0,0
1564765202156.25,-29,32,60,0,0,0,0,0
1564765202187.5,-33,35,62,0,0,0,0,0
1564765202218.75,-34,31,52,0,0,0,0,0
1564765202250,-30,26,44,0,0,0,0,0
1564765202281.25,-17,31,52,0,0,0,0,0
1564765202312.5,-24,26,55,0,0,0,0,0
1564765202343.75,-28,27,52,0,0,0,0,0
1564765202375,-23,30,57,0,0,0,0,0
1564765202406.25,-20,27,63,0,0,0,0,0
1564765202437.5,-22,26,59,0,0,0,0,0
1564765202468.75,-23,25,58,0,0,0,0,0
1564765202500,-24,19,65,0,0,0,0,0
1564765202531.25,-29,15,61,0,0,0,0,0
1564765202562.5,-25,7,59,0,0,0,0,0
1564765202593.75,-32,13,65,0,0,0,0,0
1564765202625,-47,16,44,0,0,0,0,0
1564765202656.25,-49,16,23,0,0,0,0,0
1564765202687.5,-47,12,31,0,0,0,0,0
1564765202718.75,-45,12,46,0,0,0,0,0
1564765202750,-51,12,41,0,0,0,0,0
1564765202781.25,-57,6,32,0,0,0,0,0
1564765202812.5,-55,3,33,0,0,0,0,0
1564765202843.75,-59,2,25,0,0,0,0,0
1564765202875,-60,-4,28,0,0,0,0,0
1564765202906.25,-51,3,30,0,0,0,0,0
1564765202937.5,-50,-1,23,0,0,0,0,0
1564765202968.75,-48,-2,23,0,0,0,0,0
1564765203000,-41,-13,21,0,0,0,0,0
1564765203031.25,-55,-20,32,0,0,0,0,0
1564765203062.5,-51,-20,46,0,0,0,0,0
1564765203093.75,-45,-13,47,0,0,0,0,0
1564765203125,-70,-21,21,0,0,0,0,0
1564765203156.25,-67,-29,12,0,0,0,0,0
1564765203187.5,-54,-28,3,0,0,0,0,0
1564765203218.75,-46,-43,1,0,0,0,0,0
1564765203250,-59,-29,11,0,0,0,0,0
1564765203281.25,-67,-18,-14,0,0,0,0,0
1564765203312.5,-49,-29,5,0,0,0,0,0
1564765203343.75,-40,-40,-9,0,0,0,0,0
1564765203375,-38,-39,-6,0,0,0,0,0
1564765203406.25,-45,-39,1,0,0,0,0,0
1564765203437.5,-47,-40,1,0,0,0,0,0
1564765203468.75,-51,-40,1,0,0,0,0,0
1564765203500,-52,-39,0,0,0,0,0,0
1564765203531.25,-51,-32,8,0,0,0,0,0
1564765203562.5,-48,-28,16,0,0,0,0,0
1564765203593.75,-43,-30,22,0,0,0,0,0
1564765203625,-47,-42,3,0,0,0,0,0
1564765203656.25,-48,-42,-3,0,0,0,0,0
1564765203687.5,-56,-43,-2,0,0,0,0,0
1564765203718.75,-59,-42,0,0,0,0,0,0
1564765203750,-56,-40,4,0,0,0,0,0
1564765203781.25,-51,-40,2,0,0,0,0,0
1564765203812.5,-45,-43,-4,0,0,0,0,0
1564765203843.75,-46,-48,-5,0,0,0,0,0
1564765203875,-58,-47,-13,0,0,0,0,0
1564765203906.25,-61,-40,-5,0,0,0,0,0
1564765203937.5,-54,-32,11,0,0,0,0,0
1564765203968.75,-47,-31,6,0,0,0,0,0
1564765204000,-46,-29,8,0,0,0,0,0
1564765204031.25,-50,-28,10,0,0,0,0,0
1564765204062.5,-53,-27,11,0,0,0,0,0
1564765204093.75,-55,-29,9,0,0,0,0,0
1564765204125,-56,-29,10,0,0,0,0,0
1564765204156.25,-59,-27,10,0,0,0,0,0
1564765204187.5,-61,-29,10,0,0,0,0,0
1564765204218.75,-61,-26,13,0,0,0,0,0
1564765204250,-57,-28,17,0,0,0,0,0
1564765204281.25,-58,-23,13,0,0,0,0,0
1564765204312.5,-53,-25,18,0,0,0,0,0
1564765204343.75,-52,-27,22,0,0,0,0,0
1564765204375,-55,-26,20,0,0,0,0,0
1564765204406.25,-55,-29,18,0,0,0,0,0
1564765204437.5,-51,-27,18,0,0,0,0,0
1564765204468.75,-50,-27,18,0,0,0,0,0
1564765204500,-50,-27,20,0,0,0,0,0
1564765204531.25,-52,-27,20,0,0,0,0,0
1564765204562.5,-54,-26,19,0,0,0,0,0
1564765204593.75,-48,-17,27,0,0,0,0,0
1564765204625,-43,-9,30,0,0,0,0,0
1564765204656.25,-40,-9,20,0,0,0,0,0
1564765204687.5,-41,-16,16,0,0,0,0,0
1564765204718.75,-55,-13,14,0,0,0,0,0
1564765204750,-57,-22,6,0,0,0,0,0
1564765204781.25,-72,-29,-15,0,0,0,0,0
1564765204812.5,-97,-23,-32,0,0,0,0,0
1564765204843.75,-67,-59,-8,0,0,0,0,0
1564765204875,-39,-78,5,0,0,0,0,0
1564765204906.25,-26,-12,25,0,0,0,0,0
1564765204937.5,-74,-20,42,0,0,0,0,0
1564765204968.75,-46,-6,42,0,0,0,0,0
1564765205000,-67,-9,62,0,0,0,0,0
1564765205031.25,-63,-11,57,0,0,0,0,0
1564765205062.5,-38,-4,51,0,0,0,0,0
1564765205093.75,-27,-2,47,0,0,0,0,0
1564765205125,-17,-1,49,0,0,0,0,0
1564765205156.25,-23,0,51,0,0,0,0,0
1564765205187.5,-32,2,58,0,0,0,0,0
1564765205218.75,-34,6,56,0,0,0,0,0
1564765205250,-34,5,51,0,0,0,0,0
1564765205281.25,-26,1,52,0,0,0,0,0
1564765205312.5,-27,-1,54,0,0,0,0,0
1564765205343.75,-32,2,56,0,0,0,0,0
1564765205375,-34,6,56,0,0,0,0,0
1564765205406.25,-32,10,58,0,0,0,0,0
1564765205437.5,-31,9,59,0,0,0,0,0
1564765205468.75,-28,9,63,0,0,0,0,0
1564765205500,-29,10,63,0,0,0,0,0
1564765205531.25,-39,10,56,0,0,0,0,0
1564765205562.5,-43,9,52,0,0,0,0,0
1564765205593.75,-48,4,46,0,0,0,0,0
1564765205625,-55,-2,43,0,0,0,0,0
1564765205656.25,-52,-3,41,0,0,0,0,0
1564765205687.5,-44,-2,42,0,0,0,0,0
1564765205718.75,-43,-1,44,0,0,0,0,0
1564765205750,-41,0,44,0,0,0,0,0
1564765205781.25,-43,-1,45,0,0,0,0,0
1564765205812.5,-51,-3,49,0,0,0,0,0
1564765205843.75,-53,-3,48,0,0,0,0,0
1564765205875,-45,-3,42,0,0,0,0,0
1564765205906.25,-41,-3,42,0,0,0,0,0
1564765205937.5,-39,-6,48,0,0,0,0,0
1564765205968.75,-45,-8,52,0,0,0,0,0
1564765206000,-43,-8,52,0,0,0,0,0
1564765206031.25,-38,-8,48,0,0,0,0,0
1564765206062.5,-39,-8,45,0,0,0,0,0
1564765206093.75,-42,-7,45,0,0,0,0,0
1564765206125,-43,-6,47,0,0,0,0,0
1564765206156.25,-46,-2,49,0,0,0,0,0
1564765206187.5,-48,1,51,0,0,0,0,0
1564765206218.75,-44,3,50,0,0,0,0,0
1564765206250,-38,0,48,0,0,0,0,0
1564765206281.25,-37,-2,49,0,0,0,0,0
1564765206312.5,-41,-5,50,0,0,0,0,0
1564765206343.75,-43,-5,49,0,0,0,0,0
1564765206375,-44,-5,47,0,0,0,0,0
1564765206406.25,-43,-5,47,0,0,0,0,0
1564765206437.5,-42,-5,47,0,0,0,0,0
1564765206468.75,-43,-5,47,0,0,0,0,0
1564765206500,-42,-3,48,0,0,0,0,0
1564765206531.25,-42,-2,49,0,0,0,0,0
1564765206562.5,-41,-1,49,0,0,0,0,0
1564765206593.75,-41,-1,50,0,0,0,0,0
1564765206625,-41,-1,49,0,0,0,0,0
1564765206656.25,-41,-1,49,0,0,0,0,0
1564765206687.5,-42,0,50,0,0,0,0,0
1564765206718.75,-42,-1,49,0,0,0,0,0
1564765206750,-46,-2,48,0,0,0,0,0
1564765206781.25,-48,1,51,0,0,0,0,0
1564765206812.5,-47,1,57,0,0,0,0,0
1564765206843.75,-44,1,64,0,0,0,0,0
1564765206875,-52,3,50,0,0,0,0,0
1564765206906.25,-48,-1,31,0,0,0,0,0
1564765206937.5,-52,-5,26,0,0,0,0,0
1564765206968.75,-40,0,34,0,0,0,0,0
1564765207000,-47,-13,43,0,0,0,0,0
1564765207031.25,-48,-20,40,0,0,0,0,0
1564765207062.5,-52,-24,47,0,0,0,0,0
1564765207093.75,-33,-16,58,0,0,0,0,0
1564765207125,-59,4,61,0,0,0,0,0
1564765207156.25,-56,11,63,0,0,0,0,0
1564765207187.5,-49,-13,32,0,0,0,0,0
1564765207218.75,-46,-21,26,0,0,0,0,0
1564765207250,-39,-31,23,0,0,0,0,0
1564765207281.25,-46,-26,28,0,0,0,0,0
1564765207312.5,-51,-25,31,0,0,0,0,0
1564765207343.75,-50,-23,32,0,0,0,0,0
1564765207375,-48,-20,33,0,0,0,0,0
1564765207406.25,-42,-11,43,0,0,0,0,0
1564765207437.5,-41,-10,41,0,0,0,0,0
1564765207468.75,-41,-17,35,0,0,0,0,0
1564765207500,-45,-16,35,0,0,0,0,0
1564765207531.25,-44,-16,44,0,0,0,0,0
1564765207562.5,-42,-15,51,0,0,0,0,0
1564765207593.75,-34,-5,57,0,0,0,0,0
1564765207625,-31,-2,60,0,0,0,0,0
1564765207656.25,-29,1,60,0,0,0,0,0
1564765207687.5,-28,2,60,0,0,0,0,0
1564765207718.75,-29,3,57,0,0,0,0,0
1564765207750,-29,0,53,0,0,0,0,0
1564765207781.25,-29,0,54,0,0,0,0,0
1564765207812.5,-25,-1,54,0,0,0,0,0
1564765207843.75,-26,1,53,0,0,0,0,0
1564765207875,-35,-1,55,0,0,0,0,0
1564765207906.25,-38,2,54,0,0,0,0,0
1564765207937.5,-38,2,53,0,0,0,0,0
1564765207968.75,-36,-1,53,0,0,0,0,0
1564765208000,-36,0,54,0,0,0,0,0
1564765208031.25,-41,-7,55,0,0,0,0,0
1564765208062.5,-31,-1,54,0,0,0,0,0
1564765208093.75,-46,-4,52,0,0,0,0,0
1564765208125,-42,-5,50,0,0,0,0,0
1564765208156.25,-45,-6,46,0,0,0,0,0
1564765208187.5,-48,-6,45,0,0,0,0,0
1564765208218.75,-46,-6,45,0,0,0,0,0
1564765208250,-43,-8,48,0,0,0,0,0
1564765208281.25,-46,-5,43,0,0,0,0,0
1564765208312.5,-48,-4,42,0,0,0,0,0
1564765208343.75,-56,-5,41,0,0,0,0,0
1564765208375,-52,-3,40,0,0,0,0,0
1564765208406.25,-50,-2,42,0,0,0,0,0
1564765208437.5,-46,-1,43,0,0,0,0,0
1564765208468.75,-47,-4,42,0,0,0,0,0
1564765208500,-50,-4,40,0,0,0,0,0
1564765208531.25,-52,-5,40,0,0,0,0,0
1564765208562.5,-54,-4,41,0,0,0,0,0
1564765208593.75,-51,-5,42,0,0,0,0,0
1564765208625,-50,-2,42,0,0,0,0,0
1564765208656.25,-48,0,41,0,0,0,0,0
1564765208687.5,-47,-3,42,0,0,0,0,0
1564765208718.75,-45,-4,43,0,0,0,0,0
1564765208750,-46,-9,44,0,0,0,0,0
1564765208781.25,-51,-2,43,0,0,0,0,0
1564765208812.5,-49,-8,44,0,0,0,0,0
1564765208843.75,-46,-8,41,0,0,0,0,0
1564765208875,-48,-8,42,0,0,0,0,0
1564765208906.25,-50,-9,42,0,0,0,0,0
1564765208937.5,-48,-8,42,0,0,0,0,0
1564765208968.75,-49,-8,41,0,0,0,0,0
1564765209000,-48,-7,44,0,0,0,0,0
1564765209031.25,-48,-5,44,0,0,0,0,0
1564765209062.5,-44,-11,44,0,0,0,0,0
1564765209093.75,-44,-10,43,0,0,0,0,0
1564765209125,-48,-13,43,0,0,0,0,0
1564765209156.25,-48,-12,42,0,0,0,0,0
1564765209187.5,-46,-10,44,0,0,0,0,0
1564765209218.75,-44,-10,44,0,0,0,0,0
1564765209250,-43,-9,42,0,0,0,0,0
1564765209281.25,-45,-13,41,0,0,0,0,0
1564765209312.5,-47,-11,42,0,0,0,0,0
1564765209343.75,-51,-6,47,0,0,0,0,0
1564765209375,-48,-7,47,0,0,0,0,0
1564765209406.25,-44,-8,44,0,0,0,0,0
1564765209437.5,-40,-10,45,0,0,0,0,0
1564765209468.75,-44,-6,42,0,0,0,0,0
1564765209500,-46,-8,44,0,0,0,0,0
1564765209531.25,-49,-8,44,0,0,0,0,0
1564765209562.5,-48,-10,42,0,0,0,0,0
1564765209593.75,-46,-8,44,0,0,0,0,0
1564765209625,-45,-9,43,0,0,0,0,0
1564765209656.25,-46,-9,42,0,0,0,0,0
1564765209687.5,-48,-9,43,0,0,0,0,0
1564765209718.75,-49,-9,43,0,0,0,0,0
1564765209750,-49,-8,42,0,0,0,0,0
1564765209781.25,-50,-8,41,0,0,0,0,0
1564765209812.5,-48,-8,41,0,0,0,0,0
1564765209843.75,-48,-6,40,0,0,0,0,0
1564765209875,-46,-9,41,0,0,0,0,0
1564765209906.25,-48,-8,43,0,0,0,0,0
1564765209937.5,-47,-11,41,0,0,0,0,0
1564765209968.75,-49,-13,41,0,0,0,0,0
1564765210000,-49,-12,41,0,0,0,0,0
1564765210031.25,-50,-11,39,0,0,0,0,0
1564765210062.5,-51,-12,38,0,0,0,0,0
1564765210093.75,-51,-14,38,0,0,0,0,0
1564765210125,-50,-14,38,0,0,0,0,0
1564765210156.25,-51,-14,36,0,0,0,0,0
1564765210187.5,-51,-15,35,0,0,0,0,0
1564765210218.75,-54,-12,33,0,0,0,0,0
1564765210250,-54,-11,34,0,0,0,0,0
1564765210281.25,-55,-11,34,0,0,0,0,0
1564765210312.5,-55,-11,32,0,0,0,0,0
1564765210343.75,-54,-11,32,0,0,0,0,0
1564765210375,-53,-10,32,0,0,0,0,0
1564765210406.25,-53,-10,33,0,0,0,0,0
1564765210437.5,-55,-11,32,0,0,0,0,0
1564765210468.75,-58,-12,30,0,0,0,0,0
1564765210500,-55,-10,30,0,0,0,0,0
1564765210531.25,-56,-8,30,0,0,0,0,0
1564765210562.5,-54,-13,31,0,0,0,0,0
1564765210593.75,-53,-13,32,0,0,0,0,0
1564765210625,-54,-13,33,0,0,0,0,0
1564765210656.25,-50,-18,35,0,0,0,0,0
1564765210687.5,-55,-12,34,0,0,0,0,0
1564765210718.75,-57,-13,32,0,0,0,0,0
1564765210750,-55,-13,32,0,0,0,0,0
1564765210781.25,-54,-10,31,0,0,0,0,0
1564765210812.5,-52,-12,32,0,0,0,0,0
1564765210843.75,-54,-13,33,0,0,0,0,0
1564765210875,-54,-14,33,0,0,0,0,0
1564765210906.25,-55,-10,32,0,0,0,0,0
1564765210937.5,-55,-12,33,0,0,0,0,0
1564765210968.75,-54,-10,32,0,0,0,0,0
1564765211000,-55,-10,32,0,0,0,0,0
1564765211031.25,-54,-11,35,0,0,0,0,0
1564765211062.5,-52,-11,37,0,0,0,0,0
1564765211093.75,-51,-12,37,0,0,0,0,0
1564765211125,-50,-11,39,0,0,0,0,0
1564765211156.25,-51,-11,38,0,0,0,0,0
1564765211187.5,-51,-11,37,0,0,0,0,0
1564765211218.75,-52,-11,37,0,0,0,0,0
1564765211250,-52,-11,36,0,0,0,0,0
1564765211281.25,-52,-11,36,0,0,0,0,0
1564765211312.5,-51,-11,36,0,0,0,0,0
1564765211343.75,-52,-11,35,0,0,0,0,0
1564765211375,-53,-11,35,0,0,0,0,0
1564765211406.25,-53,-11,36,0,0,0,0,0
1564765211437.5,-52,-11,36,0,0,0,0,0
1564765211468.75,-51,-11,35,0,0,0,0,0
1564765211500,-52,-11,35,0,0,0,0,0
1564765211531.25,-53,-10,34,0,0,0,0,0
1564765211562.5,-54,-10,34,0,0,0,0,0
1564765211593.75,-54,-10,35,0,0,0,0,0
1564765211625,-53,-11,35,0,0,0,0,0
1564765211656.25,-53,-12,34,0,0,0,0,0
1564765211687.5,-53,-10,33,0,0,0,0,0
1564765211718.75,-53,-11,32,0,0,0,0,0
1564765211750,-54,-11,33,0,0,0,0,0
1564765211781.25,-54,-11,34,0,0,0,0,0
1564765211812.5,-52,-11,34,0,0,0,0,0
1564765211843.75,-53,-10,34,0,0,0,0,0
1564765211875,-54,-11,33,0,0,0,0,0
1564765211906.25,-55,-11,34,0,0,0,0,0
1564765211937.5,-55,-10,32,0,0,0,0,0
1564765211968.75,-54,-11,33,0,0,0,0,0
1564765212000,-53,-12,33,0,0,0,0,0
1564765212031.25,-53,-14,33,0,0,0,0,0
1564765212062.5,-53,-11,34,0,0,0,0,0
1564765212093.75,-52,-8,35,0,0,0,0,0
1564765212125,-54,-10,36,0,0,0,0,0
1564765212156.25,-54,-13,34,0,0,0,0,0
1564765212187.5,-55,-12,33,0,0,0,0,0
1564765212218.75,-54,-12,34,0,0,0,0,0
1564765212250,-57,-19,33,0,0,0,0,0
1564765212281.25,-52,2,38,0,0,0,0,0
1564765212312.5,-44,-3,42,0,0,0,0,0
1564765212343.75,-46,-9,41,0,0,0,0,0
1564765212375,-47,-4,45,0,0,0,0,0
1564765212406.25,-41,-3,46,0,0,0,0,0
1564765212437.5,-41,-1,46,0,0,0,0,0
1564765212468.75,-42,-3,46,0,0,0,0,0
1564765212500,-44,-6,46,0,0,0,0,0
1564765212531.25,-45,-5,45,0,0,0,0,0
1564765212562.5,-44,-4,47,0,0,0,0,0
1564765212593.75,-48,-4,45,0,0,0,0,0
1564765212625,-48,-7,44,0,0,0,0,0
1564765212656.25,-47,-6,44,0,0,0,0,0
1564765212687.5,-46,-5,45,0,0,0,0,0
1564765212718.75,-46,-5,44,0,0,0,0,0
1564765212750,-47,-6,44,0,0,0,0,0
1564765212781.25,-45,-7,43,0,0,0,0,0
1564765212812.5,-45,-6,43,0,0,0,0,0
1564765212843.75,-48,-7,42,0,0,0,0,0
1564765212875,-49,-8,43,0,0,0,0,0
1564765212906.25,-48,-9,41,0,0,0,0,0
1564765212937.5,-51,-9,37,0,0,0,0,0
1564765212968.75,-53,-9,37,0,0,0,0,0
1564765213000,-52,-11,38,0,0,0,0,0
1564765213031.25,-51,-9,39,0,0,0,0,0
1564765213062.5,-50,-10,38,0,0,0,0,0
1564765213093.75,-51,-10,37,0,0,0,0,0
1564765213125,-53,-11,35,0,0,0,0,0
1564765213156.25,-53,-11,35,0,0,0,0,0
1564765213187.5,-54,-11,33,0,0,0,0,0
1564765213218.75,-54,-11,34,0,0,0,0,0
1564765213250,-52,-11,35,0,0,0,0,0
1564765213281.25,-53,-11,34,0,0,0,0,0
1564765213312.5,-54,-11,33,0,0,0,0,0
1564765213343.75,-54,-11,33,0,0,0,0,0
1564765213375,-54,-11,33,0,0,0,0,0
1564765213406.25,-54,-12,32,0,0,0,0,0
1564765213437.5,-55,-11,32,0,0,0,0,0
1564765213468.75,-54,-11,32,0,0,0,0,0
1564765213500,-54,-12,32,0,0,0,0,0
1564765213531.25,-55,-11,32,0,0,0,0,0
1564765213562.5,-55,-11,32,0,0,0,0,0
1564765213593.75,-55,-12,32,0,0,0,0,0
1564765213625,-56,-13,29,0,0,0,0,0
1564765213656.25,-56,-12,29,0,0,0,0,0
1564765213687.5,-55,-11,30,0,0,0,0,0
1564765213718.75,-56,-10,29,0,0,0,0,0
1564765213750,-55,-11,30,0,0,0,0,0
1564765213781.25,-55,-11,30,0,0,0,0,0
1564765213812.5,-55,-10,30,0,0,0,0,0
1564765213843.75,-56,-10,30,0,0,0,0,0
1564765213875,-56,-12,30,0,0,0,0,0
1564765213906.25,-54,-12,31,0,0,0,0,0
1564765213937.5,-55,-12,30,0,0,0,0,0
1564765213968.75,-56,-11,30,0,0,0,0,0
1564765214000,-55,-11,30,0,0,0,0,0
1564765214031.25,-54,-12,30,0,0,0,0,0
1564765214062.5,-55,-9,31,0,0,0,0,0
1564765214093.75,-54,-11,30,0,0,0,0,0
1564765214125,-56,-10,30,0,0,0,0,0
1564765214156.25,-57,-12,29,0,0,0,0,0
1564765214187.5,-55,-12,29,0,0,0,0,0
1564765214218.75,-56,-11,29,0,0,0,0,0
1564765214250,-56,-11,30,0,0,0,0,0
1564765214281.25,-57,-10,29,0,0,0,0,0
1564765214312.5,-55,-10,29,0,0,0,0,0
1564765214343.75,-55,-11,29,0,0,0,0,0
1564765214375,-57,-10,29,0,0,0,0,0
1564765214406.25,-57,-11,29,0,0,0,0,0
1564765214437.5,-56,-11,29,0,0,0,0,0
1564765214468.75,-57,-11,29,0,0,0,0,0
1564765214500,-55,-11,28,0,0,0,0,0
1564765214531.25,-57,-10,27,0,0,0,0,0
1564765214562.5,-58,-11,27,0,0,0,0,0
1564765214593.75,-59,-11,27,0,0,0,0,0
1564765214625,-57,-10,27,0,0,0,0,0
1564765214656.25,-54,-9,27,0,0,0,0,0
1564765214687.5,-54,-10,28,0,0,0,0,0
1564765214718.75,-56,-11,25,0,0,0,0,0
1564765214750,-57,-11,25,0,0,0,0,0
1564765214781.25,-62,-14,24,0,0,0,0,0
1564765214812.5,-61,-12,25,0,0,0,0,0
1564765214843.75,-59,-11,24,0,0,0,0,0
1564765214875,-58,-11,25,0,0,0,0,0
1564765214906.25,-57,-11,25,0,0,0,0,0
1564765214937.5,-54,-9,26,0,0,0,0,0
1564765214968.75,-56,-11,25,0,0,0,0,0
1564765215000,-57,-12,23,0,0,0,0,0
1564765215031.25,-57,-10,24,0,0,0,0,0
1564765215062.5,-59,-11,25,0,0,0,0,0
1564765215093.75,-55,-10,27,0,0,0,0,0
1564765215125,-56,-9,29,0,0,0,0,0
1564765215156.25,-58,-10,28,0,0,0,0,0
1564765215187.5,-57,-12,27,0,0,0,0,0
1564765215218.75,-57,-12,24,0,0,0,0,0
1564765215250,-60,-14,23,0,0,0,0,0
1564765215281.25,-56,-10,30,0,0,0,0,0
1564765215312.5,-57,-10,28,0,0,0,0,0
1564765215343.75,-55,-23,27,0,0,0,0,0
1564765215375,-58,-13,27,0,0,0,0,0
1564765215406.25,-59,-11,29,0,0,0,0,0
1564765215437.5,-58,-10,30,0,0,0,0,0
1564765215468.75,-57,-10,28,0,0,0,0,0
1564765215500,-58,-11,28,0,0,0,0,0
1564765215531.25,-58,-14,24,0,0,0,0,0
1564765215562.5,-54,-8,29,0,0,0,0,0
1564765215593.75,-55,-11,32,0,0,0,0,0
1564765215625,-55,-12,25,0,0,0,0,0
1564765215656.25,-57,-10,26,0,0,0,0,0
1564765215687.5,-57,-13,27,0,0,0,0,0
1564765215718.75,-56,-14,27,0,0,0,0,0
1564765215750,-57,-9,26,0,0,0,0,0
1564765215781.25,-63,-6,25,0,0,0,0,0
1564765215812.5,-55,-10,28,0,0,0,0,0
1564765215843.75,-55,-9,28,0,0,0,0,0
1564765215875,-56,-10,27,0,0,0,0,0
1564765215906.25,-55,-10,27,0,0,0,0,0
1564765215937.5,-58,-10,27,0,0,0,0,0
1564765215968.75,-57,-11,28,0,0,0,0,0
1564765216000,-57,-10,29,0,0,0,0,0
1564765216031.25,-56,-9,29,0,0,0,0,0
1564765216062.5,-56,-8,30,0,0,0,0,0
1564765216093.75,-56,-12,27,0,0,0,0,0
1564765216125,-51,-15,29,0,0,0,0,0
1564765216156.25,-58,-13,25,0,0,0,0,0
1564765216187.5,-57,-14,26,0,0,0,0,0
1564765216218.75,-55,-13,25,0,0,0,0,0
1564765216250,-59,-12,25,0,0,0,0,0
1564765216281.25,-57,-10,27,0,0,0,0,0
1564765216312.5,-57,-13,27,0,0,0,0,0
1564765216343.75,-58,-14,25,0,0,0,0,0
1564765216375,-57,-14,23,0,0,0,0,0
1564765216406.25,-58,-12,23,0,0,0,0,0
1564765216437.5,-57,-12,26,0,0,0,0,0
1564765216468.75,-54,-14,25,0,0,0,0,0
1564765216500,-62,-13,23,0,0,0,0,0
1564765216531.25,-58,-12,24,0,0,0,0,0
1564765216562.5,-57,-13,25,0,0,0,0,0
1564765216593.75,-62,-11,23,0,0,0,0,0
1564765216625,-57,-10,25,0,0,0,0,0
1564765216656.25,-51,-13,28,0,0,0,0,0
1564765216687.5,-56,-12,27,0,0,0,0,0
1564765216718.75,-57,-8,29,0,0,0,0,0
1564765216750,-58,-14,28,0,0,0,0,0
1564765216781.25,-59,-10,30,0,0,0,0,0
1564765216812.5,-56,-11,29,0,0,0,0,0
1564765216843.75,-56,-9,26,0,0,0,0,0
1564765216875,-60,8,31,0,0,0,0,0
1564765216906.25,-37,32,48,0,0,0,0,0
1564765216937.5,-56,-13,27,0,0,0,0,0
1564765216968.75,-57,-9,28,0,0,0,0,0
1564765217000,-53,-19,25,0,0,0,0,0
1564765217031.25,-55,-16,26,0,0,0,0,0
1564765217062.5,-58,-12,28,0,0,0,0,0
1564765217093.75,-57,-10,28,0,0,0,0,0
1564765217125,-56,-16,27,0,0,0,0,0
1564765217156.25,-54,-21,25,0,0,0,0,0
1564765217187.5,-53,-16,26,0,0,0,0,0
1564765217218.75,-55,-19,26,0,0,0,0,0
1564765217250,-56,-14,29,0,0,0,0,0
1564765217281.25,-56,-17,27,0,0,0,0,0
1564765217312.5,-54,-22,27,0,0,0,0,0
1564765217343.75,-54,-16,28,0,0,0,0,0
1564765217375,-54,-15,29,0,0,0,0,0
1564765217406.25,-57,-20,28,0,0,0,0,0
1564765217437.5,-58,-20,28,0,0,0,0,0
1564765217468.75,-54,-19,28,0,0,0,0,0
1564765217500,-58,-18,26,0,0,0,0,0
1564765217531.25,-50,-18,25,0,0,0,0,0
1564765217562.5,-47,-14,30,0,0,0,0,0
1564765217593.75,-50,-15,30,0,0,0,0,0
1564765217625,-67,-2,29,0,0,0,0,0
1564765217656.25,-69,-26,23,0,0,0,0,0
1564765217687.5,-55,-12,23,0,0,0,0,0
1564765217718.75,-57,-13,22,0,0,0,0,0
1564765217750,-57,-15,22,0,0,0,0,0
1564765217781.25,-59,-16,21,0,0,0,0,0
1564765217812.5,-58,-16,22,0,0,0,0,0
1564765217843.75,-54,-15,25,0,0,0,0,0
1564765217875,-63,-14,20,0,0,0,0,0
1564765217906.25,-59,-15,20,0,0,0,0,0
1564765217937.5,-59,-13,19,0,0,0,0,0
1564765217968.75,-60,-15,18,0,0,0,0,0
1564765218000,-58,-13,20,0,0,0,0,0
1564765218031.25,-60,-13,15,0,0,0,0,0
1564765218062.5,-62,-11,14,0,0,0,0,0
1564765218093.75,-60,-10,19,0,0,0,0,0
1564765218125,-60,-13,18,0,0,0,0,0
1564765218156.25,-60,-12,17,0,0,0,0,0
1564765218187.5,-60,-15,17,0,0,0,0,0
1564765218218.75,-56,-13,18,0,0,0,0,0
1564765218250,-64,-12,16,0,0,0,0,0
1564765218281.25,-66,-22,15,0,0,0,0,0
1564765218312.5,-59,-13,16,0,0,0,0,0
1564765218343.75,-58,-16,17,0,0,0,0,0
1564765218375,-63,-14,19,0,0,0,0,0
1564765218406.25,-65,-14,17,0,0,0,0,0
1564765218437.5,-60,-12,16,0,0,0,0,0
1564765218468.75,-56,-10,17,0,0,0,0,0
1564765218500,-48,-16,21,0,0,0,0,0
1564765218531.25,-53,-22,19,0,0,0,0,0
1564765218562.5,-59,-18,18,0,0,0,0,0
1564765218593.75,-69,-19,11,0,0,0,0,0
1564765218625,-64,-20,13,0,0,0,0,0
1564765218656.25,-59,-18,18,0,0,0,0,0
1564765218687.5,-57,-18,18,0,0,0,0,0
1564765218718.75,-59,-17,17,0,0,0,0,0
1564765218750,-60,-17,17,0,0,0,0,0
1564765218781.25,-59,-15,15,0,0,0,0,0
1564765218812.5,-58,-15,14,0,0,0,0,0
1564765218843.75,-62,-16,13,0,0,0,0,0
1564765218875,-60,-16,14,0,0,0,0,0
1564765218906.25,-61,-11,13,0,0,0,0,0
1564765218937.5,-61,-14,16,0,0,0,0,0
1564765218968.75,-60,-15,14,0,0,0,0,0
1564765219000,-59,-16,16,0,0,0,0,0
1564765219031.25,-59,-15,16,0,0,0,0,0
1564765219062.5,-60,-15,11,0,0,0,0,0
1564765219093.75,-59,-14,14,0,0,0,0,0
1564765219125,-62,-16,12,0,0,0,0,0
1564765219156.25,-66,-12,13,0,0,0,0,0
1564765219187.5,-61,-15,11,0,0,0,0,0
1564765219218.75,-62,-15,10,0,0,0,0,0
1564765219250,-61,-14,10,0,0,0,0,0
1564765219281.25,-61,-13,12,0,0,0,0,0
1564765219312.5,-60,-13,12,0,0,0,0,0
1564765219343.75,-59,-14,13,0,0,0,0,0
1564765219375,-58,-15,11,0,0,0,0,0
1564765219406.25,-65,-13,10,0,0,0,0,0
1564765219437.5,-65,-13,9,0,0,0,0,0
1564765219468.75,-63,-14,9,0,0,0,0,0
1564765219500,-61,-15,9,0,0,0,0,0
1564765219531.25,-60,-13,9,0,0,0,0,0
1564765219562.5,-61,-14,11,0,0,0,0,0
1564765219593.75,-60,-11,11,0,0,0,0,0
1564765219625,-62,-15,9,0,0,0,0,0
1564765219656.25,-66,-13,8,0,0,0,0,0
1564765219687.5,-64,-12,8,0,0,0,0,0
1564765219718.75,-63,-13,9,0,0,0,0,0
1564765219750,-60,-13,10,0,0,0,0,0
1564765219781.25,-61,-14,10,0,0,0,0,0
1564765219812.5,-60,-9,12,0,0,0,0,0
1564765219843.75,-59,-10,12,0,0,0,0,0
1564765219875,-61,-10,11,0,0,0,0,0
1564765219906.25,-56,-14,11,0,0,0,0,0
1564765219937.5,-59,-12,10,0,0,0,0,0
1564765219968.75,-61,-10,11,0,0,0,0,0
1564765220000,-64,-9,9,0,0,0,0,0
1564765220031.25,-62,-11,9,0,0,0,0,0
1564765220062.5,-67,-8,8,0,0,0,0,0
1564765220093.75,-61,-5,11,0,0,0,0,0
1564765220125,-61,-7,12,0,0,0,0,0
1564765220156.25,-64,-3,16,0,0,0,0,0
1564765220187.5,-63,-5,17,0,0,0,0,0
1564765220218.75,-56,-5,23,0,0,0,0,0
1564765220250,-58,1,35,0,0,0,0,0
1564765220281.25,-57,5,32,0,0,0,0,0
1564765220312.5,-59,11,42,0,0,0,0,0
1564765220343.75,-67,5,36,0,0,0,0,0
1564765220375,-34,3,44,0,0,0,0,0
1564765220406.25,-26,2,45,0,0,0,0,0
1564765220437.5,-43,14,44,0,0,0,0,0
1564765220468.75,-60,14,34,0,0,0,0,0
1564765220500,-66,21,40,0,0,0,0,0
1564765220531.25,-60,14,34,0,0,0,0,0
1564765220562.5,-50,13,34,0,0,0,0,0
1564765220593.75,-44,16,33,0,0,0,0,0
1564765220625,-50,20,36,0,0,0,0,0
1564765220656.25,-56,24,36,0,0,0,0,0
1564765220687.5,-57,25,35,0,0,0,0,0
1564765220718.75,-42,28,43,0,0,0,0,0
1564765220750,-31,28,48,0,0,0,0,0
1564765220781.25,-39,25,42,0,0,0,0,0
1564765220812.5,-44,22,41,0,0,0,0,0
1564765220843.75,-50,30,44,0,0,0,0,0
1564765220875,-48,34,44,0,0,0,0,0
1564765220906.25,-35,26,46,0,0,0,0,0
1564765220937.5,-12,28,56,0,0,0,0,0
1564765220968.75,5,30,63,0,0,0,0,0
1564765221000,-10,30,59,0,0,0,0,0
1564765221031.25,-22,26,55,0,0,0,0,0
1564765221062.5,-21,25,56,0,0,0,0,0
1564765221093.75,-21,25,57,0,0,0,0,0
1564765221125,-21,23,55,0,0,0,0,0
1564765221156.25,-24,26,53,0,0,0,0,0
1564765221187.5,-22,27,55,0,0,0,0,0
1564765221218.75,-20,26,57,0,0,0,0,0
1564765221250,-21,26,57,0,0,0,0,0
1564765221281.25,-22,27,60,0,0,0,0,0
1564765221312.5,-15,23,59,0,0,0,0,0
1564765221343.75,-16,27,57,0,0,0,0,0
1564765221375,-21,28,55,0,0,0,0,0
1564765221406.25,-23,30,54,0,0,0,0,0
1564765221437.5,-21,30,54,0,0,0,0,0
1564765221468.75,-20,26,59,0,0,0,0,0
1564765221500,-20,24,59,0,0,0,0,0
1564765221531.25,-7,31,51,0,0,0,0,0
1564765221562.5,9,30,52,0,0,0,0,0
1564765221593.75,-13,15,59,0,0,0,0,0
1564765221625,-27,20,67,0,0,0,0,0
1564765221656.25,-25,24,60,0,0,0,0,0
1564765221687.5,-23,27,55,0,0,0,0,0
1564765221718.75,-23,25,59,0,0,0,0,0
1564765221750,-24,16,65,0,0,0,0,0
1564765221781.25,-29,19,60,0,0,0,0,0
1564765221812.5,-26,21,42,0,0,0,0,0
1564765221843.75,-17,39,47,0,0,0,0,0
1564765221875,-22,42,54,0,0,0,0,0
1564765221906.25,-32,35,61,0,0,0,0,0
1564765221937.5,-28,27,57,0,0,0,0,0
1564765221968.75,-22,18,49,0,0,0,0,0
1564765222000,-24,18,48,0,0,0,0,0
1564765222031.25,-24,23,50,0,0,0,0,0
1564765222062.5,-22,27,51,0,0,0,0,0
1564765222093.75,-21,33,55,0,0,0,0,0
1564765222125,-28,49,65,0,0,0,0,0
1564765222156.25,-29,33,55,0,0,0,0,0
1564765222187.5,-30,22,46,0,0,0,0,0
1564765222218.75,-28,20,45,0,0,0,0,0
1564765222250,-34,20,49,0,0,0,0,0
1564765222281.25,-33,24,52,0,0,0,0,0
1564765222312.5,-32,28,54,0,0,0,0,0
1564765222343.75,-32,26,52,0,0,0,0,0
1564765222375,-31,24,48,0,0,0,0,0
1564765222406.25,-32,23,49,0,0,0,0,0
1564765222437.5,-34,22,51,0,0,0,0,0
1564765222468.75,-34,22,52,0,0,0,0,0
1564765222500,-31,22,50,0,0,0,0,0
1564765222531.25,-33,24,49,0,0,0,0,0
1564765222562.5,-34,25,50,0,0,0,0,0
1564765222593.75,-34,24,50,0,0,0,0,0
1564765222625,-34,23,50,0,0,0,0,0
1564765222656.25,-34,23,49,0,0,0,0,0
1564765222687.5,-34,24,49,0,0,0,0,0
1564765222718.75,-36,23,49,0,0,0,0,0
1564765222750,-37,24,49,0,0,0,0,0
1564765222781.25,-36,21,48,0,0,0,0,0
1564765222812.5,-37,21,47,0,0,0,0,0
1564765222843.75,-39,21,47,0,0,0,0,0
1564765222875,-40,20,46,0,0,0,0,0
1564765222906.25,-40,21,46,0,0,0,0,0
1564765222937.5,-40,22,46,0,0,0,0,0
1564765222968.75,-40,23,47,0,0,0,0,0
1564765223000,-38,22,46,0,0,0,0,0
1564765223031.25,-38,22,47,0,0,0,0,0
1564765223062.5,-39,22,46,0,0,0,0,0
1564765223093.75,-39,22,46,0,0,0,0,0
1564765223125,-38,22,46,0,0,0,0,0
1564765223156.25,-38,22,48,0,0,0,0,0
1564765223187.5,-38,23,48,0,0,0,0,0
1564765223218.75,-37,23,47,0,0,0,0,0
1564765223250,-37,23,47,0,0,0,0,0
1564765223281.25,-39,24,48,0,0,0,0,0
1564765223312.5,-38,23,48,0,0,0,0,0
1564765223343.75,-39,24,50,0,0,0,0,0
1564765223375,-37,23,48,0,0,0,0,0
1564765223406.25,-39,21,44,0,0,0,0,0
1564765223437.5,-38,21,46,0,0,0,0,0
1564765223468.75,-40,22,50,0,0,0,0,0
1564765223500,-33,23,53,0,0,0,0,0
1564765223531.25,-33,21,52,0,0,0,0,0
1564765223562.5,-30,15,48,0,0,0,0,0
1564765223593.75,-33,13,44,0,0,0,0,0
1564765223625,-34,18,52,0,0,0,0,0
1564765223656.25,-33,20,58,0,0,0,0,0
1564765223687.5,-27,22,59,0,0,0,0,0
1564765223718.75,-25,21,56,0,0,0,0,0
1564765223750,-26,19,54,0,0,0,0,0
1564765223781.25,-25,20,54,0,0,0,0,0
1564765223812.5,-21,22,58,0,0,0,0,0
1564765223843.75,-27,21,59,0,0,0,0,0
1564765223875,-28,20,57,0,0,0,0,0
1564765223906.25,-25,18,54,0,0,0,0,0
1564765223937.5,-26,17,54,0,0,0,0,0
1564765223968.75,-22,15,60,0,0,0,0,0
1564765224000,-22,21,64,0,0,0,0,0
1564765224031.25,-24,18,57,0,0,0,0,0
1564765224062.5,-26,18,53,0,0,0,0,0
1564765224093.75,-32,17,53,0,0,0,0,0
1564765224125,-29,17,55,0,0,0,0,0
1564765224156.25,-27,16,56,0,0,0,0,0
1564765224187.5,-25,18,56,0,0,0,0,0
1564765224218.75,-28,18,55,0,0,0,0,0
1564765224250,-30,18,57,0,0,0,0,0
1564765224281.25,-27,18,56,0,0,0,0,0
1564765224312.5,-27,18,56,0,0,0,0,0
1564765224343.75,-27,19,56,0,0,0,0,0
1564765224375,-27,20,59,0,0,0,0,0
1564765224406.25,-27,19,59,0,0,0,0,0
1564765224437.5,-27,18,55,0,0,0,0,0
1564765224468.75,-28,17,54,0,0,0,0,0
1564765224500,-29,17,54,0,0,0,0,0
1564765224531.25,-29,18,56,0,0,0,0,0
1564765224562.5,-28,17,56,0,0,0,0,0
1564765224593.75,-27,17,55,0,0,0,0,0
1564765224625,-27,17,56,0,0,0,0,0
1564765224656.25,-24,18,57,0,0,0,0,0
1564765224687.5,-23,20,58,0,0,0,0,0
1564765224718.75,-30,18,56,0,0,0,0,0
1564765224750,-31,17,54,0,0,0,0,0
1564765224781.25,-28,17,56,0,0,0,0,0
1564765224812.5,-30,17,54,0,0,0,0,0
1564765224843.75,-30,17,53,0,0,0,0,0
1564765224875,-28,18,55,0,0,0,0,0
1564765224906.25,-30,19,57,0,0,0,0,0
1564765224937.5,-28,18,57,0,0,0,0,0
1564765224968.75,-27,18,55,0,0,0,0,0
1564765225000,-27,17,55,0,0,0,0,0
1564765225031.25,-28,17,55,0,0,0,0,0
1564765225062.5,-29,16,56,0,0,0,0,0
1564765225093.75,-29,16,56,0,0,0,0,0
1564765225125,-32,15,50,0,0,0,0,0
1564765225156.25,-26,20,61,0,0,0,0,0
1564765225187.5,-25,18,59,0,0,0,0,0
1564765225218.75,-27,17,54,0,0,0,0,0
1564765225250,-28,18,54,0,0,0,0,0
1564765225281.25,-31,18,55,0,0,0,0,0
1564765225312.5,-31,18,55,0,0,0,0,0
1564765225343.75,-30,17,54,0,0,0,0,0
1564765225375,-31,16,55,0,0,0,0,0
1564765225406.25,-40,12,44,0,0,0,0,0
1564765225437.5,-37,17,51,0,0,0,0,0
1564765225468.75,-22,20,62,0,0,0,0,0
1564765225500,-25,17,55,0,0,0,0,0
1564765225531.25,-30,16,53,0,0,0,0,0
1564765225562.5,-34,17,52,0,0,0,0,0
1564765225593.75,-35,18,53,0,0,0,0,0
1564765225625,-33,18,55,0,0,0,0,0
1564765225656.25,-31,19,56,0,0,0,0,0
1564765225687.5,-29,17,53,0,0,0,0,0
1564765225718.75,-31,17,53,0,0,0,0,0
1564765225750,-34,16,53,0,0,0,0,0
1564765225781.25,-34,16,52,0,0,0,0,0
1564765225812.5,-33,16,55,0,0,0,0,0
1564765225843.75,-30,15,54,0,0,0,0,0
1564765225875,-29,14,52,0,0,0,0,0
1564765225906.25,-33,14,52,0,0,0,0,0
1564765225937.5,-35,17,53,0,0,0,0,0
1564765225968.75,-31,20,57,0,0,0,0,0
1564765226000,-33,18,56,0,0,0,0,0
1564765226031.25,-33,16,53,0,0,0,0,0
1564765226062.5,-32,16,52,0,0,0,0,0
1564765226093.75,-34,15,51,0,0,0,0,0
1564765226125,-35,14,52,0,0,0,0,0
1564765226156.25,-35,14,53,0,0,0,0,0
1564765226187.5,-34,15,53,0,0,0,0,0
1564765226218.75,-33,15,53,0,0,0,0,0
1564765226250,-34,16,52,0,0,0,0,0
1564765226281.25,-35,16,52,0,0,0,0,0
1564765226312.5,-35,16,53,0,0,0,0,0
1564765226343.75,-36,16,54,0,0,0,0,0
1564765226375,-34,15,53,0,0,0,0,0
1564765226406.25,-34,15,53,0,0,0,0,0
1564765226437.5,-37,13,51,0,0,0,0,0
1564765226468.75,-35,11,50,0,0,0,0,0
1564765226500,-37,12,50,0,0,0,0,0
1564765226531.25,-39,13,50,0,0,0,0,0
1564765226562.5,-40,13,50,0,0,0,0,0
1564765226593.75,-40,13,49,0,0,0,0,0
1564765226625,-40,13,48,0,0,0,0,0
1564765226656.25,-42,11,47,0,0,0,0,0
1564765226687.5,-43,11,48,0,0,0,0,0
1564765226718.75,-39,11,52,0,0,0,0,0
1564765226750,-38,11,51,0,0,0,0,0
1564765226781.25,-38,10,48,0,0,0,0,0
1564765226812.5,-39,11,48,0,0,0,0,0
1564765226843.75,-43,11,49,0,0,0,0,0
1564765226875,-43,11,48,0,0,0,0,0
1564765226906.25,-40,10,48,0,0,0,0,0
1564765226937.5,-37,10,50,0,0,0,0,0
1564765226968.75,-37,11,52,0,0,0,0,0
1564765227000,-38,12,53,0,0,0,0,0
1564765227031.25,-40,12,53,0,0,0,0,0
1564765227062.5,-43,11,44,0,0,0,0,0
1564765227093.75,-45,12,47,0,0,0,0,0
1564765227125,-44,10,48,0,0,0,0,0
1564765227156.25,-36,11,48,0,0,0,0,0
1564765227187.5,-35,12,51,0,0,0,0,0
1564765227218.75,-36,12,54,0,0,0,0,0
1564765227250,-34,13,52,0,0,0,0,0
1564765227281.25,-37,15,56,0,0,0,0,0
1564765227312.5,-36,14,53,0,0,0,0,0
1564765227343.75,-36,12,50,0,0,0,0,0
1564765227375,-39,10,49,0,0,0,0,0
1564765227406.25,-42,10,51,0,0,0,0,0
1564765227437.5,-40,10,51,0,0,0,0,0
1564765227468.75,-35,11,51,0,0,0,0,0
1564765227500,-35,13,53,0,0,0,0,0
1564765227531.25,-36,15,53,0,0,0,0,0
1564765227562.5,-38,13,53,0,0,0,0,0
1564765227593.75,-38,10,51,0,0,0,0,0
1564765227625,-37,9,49,0,0,0,0,0
1564765227656.25,-39,8,49,0,0,0,0,0
1564765227687.5,-42,6,49,0,0,0,0,0
1564765227718.75,-41,6,49,0,0,0,0,0
1564765227750,-40,6,48,0,0,0,0,0
1564765227781.25,-39,9,49,0,0,0,0,0
1564765227812.5,-41,10,51,0,0,0,0,0
1564765227843.75,-37,11,54,0,0,0,0,0
1564765227875,-36,12,53,0,0,0,0,0
1564765227906.25,-38,11,51,0,0,0,0,0
1564765227937.5,-39,10,50,0,0,0,0,0
1564765227968.75,-41,10,50,0,0,0,0,0
1564765228000,-40,9,50,0,0,0,0,0
1564765228031.25,-39,8,49,0,0,0,0,0
1564765228062.5,-39,9,49,0,0,0,0,0
1564765228093.75,-39,11,50,0,0,0,0,0
1564765228125,-39,11,51,0,0,0,0,0
1564765228156.25,-39,11,51,0,0,0,0,0
1564765228187.5,-39,10,52,0,0,0,0,0
1564765228218.75,-39,9,51,0,0,0,0,0
1564765228250,-38,10,51,0,0,0,0,0
1564765228281.25,-38,10,51,0,0,0,0,0
1564765228312.5,-39,10,51,0,0,0,0,0
1564765228343.75,-40,11,51,0,0,0,0,0
1564765228375,-40,9,50,0,0,0,0,0
1564765228406.25,-38,10,50,0,0,0,0,0
1564765228437.5,-36,11,51,0,0,0,0,0
1564765228468.75,-36,12,51,0,0,0,0,0
1564765228500,-38,11,52,0,0,0,0,0
1564765228531.25,-40,9,53,0,0,0,0,0
1564765228562.5,-39,8,52,0,0,0,0,0
1564765228593.75,-34,9,51,0,0,0,0,0
1564765228625,-34,10,52,0,0,0,0,0
1564765228656.25,-37,12,53,0,0,0,0,0
1564765228687.5,-38,13,54,0,0,0,0,0
1564765228718.75,-38,12,52,0,0,0,0,0
1564765228750,-39,12,51,0,0,0,0,0
1564765228781.25,-50,11,56,0,0,0,0,0
1564765228812.5,-38,7,57,0,0,0,0,0
1564765228843.75,-36,7,55,0,0,0,0,0
1564765228875,-33,12,51,0,0,0,0,0
1564765228906.25,-26,14,53,0,0,0,0,0
1564765228937.5,-18,14,55,0,0,0,0,0
1564765228968.75,-25,12,56,0,0,0,0,0
1564765229000,-29,9,58,0,0,0,0,0
1564765229031.25,-32,7,59,0,0,0,0,0
1564765229062.5,-37,5,56,0,0,0,0,0
1564765229093.75,-38,4,53,0,0,0,0,0
1564765229125,-37,4,51,0,0,0,0,0
1564765229156.25,-36,5,53,0,0,0,0,0
1564765229187.5,-33,5,54,0,0,0,0,0
1564765229218.75,-34,5,53,0,0,0,0,0
1564765229250,-31,5,55,0,0,0,0,0
1564765229281.25,-31,5,57,0,0,0,0,0
1564765229312.5,-31,5,58,0,0,0,0,0
1564765229343.75,-33,3,56,0,0,0,0,0
1564765229375,-34,3,56,0,0,0,0,0
1564765229406.25,-35,5,61,0,0,0,0,0
1564765229437.5,-36,5,61,0,0,0,0,0
1564765229468.75,-40,3,58,0,0,0,0,0
1564765229500,-30,4,62,0,0,0,0,0
1564765229531.25,-32,3,61,0,0,0,0,0
1564765229562.5,-39,5,64,0,0,0,0,0
1564765229593.75,-39,3,63,0,0,0,0,0
1564765229625,-25,-5,55,0,0,0,0,0
1564765229656.25,-19,-9,51,0,0,0,0,0
1564765229687.5,-22,-14,55,0,0,0,0,0
1564765229718.75,-20,-16,57,0,0,0,0,0
1564765229750,-14,-20,53,0,0,0,0,0
1564765229781.25,-13,-21,52,0,0,0,0,0
1564765229812.5,-23,-21,51,0,0,0,0,0
1564765229843.75,-22,-19,54,0,0,0,0,0
1564765229875,-21,-20,57,0,0,0,0,0
1564765229906.25,-19,-21,57,0,0,0,0,0
1564765229937.5,-19,-22,55,0,0,0,0,0
1564765229968.75,-19,-21,55,0,0,0,0,0
1564765230000,-20,-21,54,0,0,0,0,0
1564765230031.25,-20,-21,56,0,0,0,0,0
1564765230062.5,-20,-21,57,0,0,0,0,0
1564765230093.75,-28,-22,54,0,0,0,0,0
1564765230125,-33,-22,49,0,0,0,0,0
1564765230156.25,-31,-21,50,0,0,0,0,0
1564765230187.5,-31,-21,51,0,0,0,0,0
1564765230218.75,-32,-21,53,0,0,0,0,0
1564765230250,-31,-23,52,0,0,0,0,0
1564765230281.25,-31,-23,52,0,0,0,0,0
1564765230312.5,-30,-22,52,0,0,0,0,0
1564765230343.75,-29,-22,51,0,0,0,0,0
1564765230375,-31,-22,51,0,0,0,0,0
1564765230406.25,-28,-22,52,0,0,0,0,0
1564765230437.5,-31,-20,53,0,0,0,0,0
1564765230468.75,-35,-23,50,0,0,0,0,0
1564765230500,-34,-21,51,0,0,0,0,0
1564765230531.25,-35,-21,54,0,0,0,0,0
1564765230562.5,-32,-24,52,0,0,0,0,0
1564765230593.75,-32,-22,49,0,0,0,0,0
1564765230625,-33,-22,48,0,0,0,0,0
1564765230656.25,-32,-21,49,0,0,0,0,0
1564765230687.5,-33,-22,49,0,0,0,0,0
1564765230718.75,-33,-22,51,0,0,0,0,0
1564765230750,-32,-21,53,0,0,0,0,0
1564765230781.25,-30,-21,54,0,0,0,0,0
1564765230812.5,-33,-21,52,0,0,0,0,0
1564765230843.75,-34,-22,51,0,0,0,0,0
1564765230875,-34,-22,49,0,0,0,0,0
1564765230906.25,-36,-23,50,0,0,0,0,0
1564765230937.5,-35,-25,49,0,0,0,0,0
1564765230968.75,-32,-24,48,0,0,0,0,0
1564765231000,-31,-22,53,0,0,0,0,0
1564765231031.25,-30,-22,53,0,0,0,0,0
1564765231062.5,-30,-23,50,0,0,0,0,0
1564765231093.75,-31,-23,50,0,0,0,0,0
1564765231125,-30,-22,51,0,0,0,0,0
1564765231156.25,-31,-22,54,0,0,0,0,0
1564765231187.5,-31,-22,54,0,0,0,0,0
1564765231218.75,-31,-22,52,0,0,0,0,0
1564765231250,-31,-22,51,0,0,0,0,0
1564765231281.25,-32,-22,52,0,0,0,0,0
1564765231312.5,-35,-23,52,0,0,0,0,0
1564765231343.75,-29,-20,51,0,0,0,0,0
1564765231375,-29,-19,52,0,0,0,0,0
1564765231406.25,-34,-21,52,0,0,0,0,0
1564765231437.5,-35,-21,51,0,0,0,0,0
1564765231468.75,-36,-21,51,0,0,0,0,0
1564765231500,-35,-20,51,0,0,0,0,0
1564765231531.25,-32,-19,52,0,0,0,0,0
1564765231562.5,-31,-18,51,0,0,0,0,0
1564765231593.75,-32,-18,50,0,0,0,0,0
1564765231625,-32,-19,53,0,0,0,0,0
1564765231656.25,-34,-20,53,0,0,0,0,0
1564765231687.5,-34,-20,52,0,0,0,0,0
1564765231718.75,-34,-20,51,0,0,0,0,0
1564765231750,-33,-20,48,0,0,0,0,0
1564765231781.25,-31,-18,53,0,0,0,0,0
1564765231812.5,-31,-16,56,0,0,0,0,0
1564765231843.75,-32,-14,59,0,0,0,0,0
1564765231875,-31,-15,57,0,0,0,0,0
1564765231906.25,-31,-17,51,0,0,0,0,0
1564765231937.5,-31,-17,51,0,0,0,0,0
1564765231968.75,-33,-16,54,0,0,0,0,0
1564765232000,-33,-16,55,0,0,0,0,0
1564765232031.25,-32,-16,55,0,0,0,0,0
1564765232062.5,-33,-16,54,0,0,0,0,0
1564765232093.75,-32,-16,53,0,0,0,0,0
1564765232125,-35,-16,54,0,0,0,0,0
1564765232156.25,-35,-15,56,0,0,0,0,0
1564765232187.5,-30,-14,55,0,0,0,0,0
1564765232218.75,-27,-14,53,0,0,0,0,0
1564765232250,-28,-14,53,0,0,0,0,0
1564765232281.25,-29,-14,54,0,0,0,0,0
1564765232312.5,-31,-15,54,0,0,0,0,0
1564765232343.75,-33,-16,55,0,0,0,0,0
1564765232375,-33,-16,56,0,0,0,0,0
1564765232406.25,-32,-15,57,0,0,0,0,0
1564765232437.5,-34,-16,55,0,0,0,0,0
1564765232468.75,-24,-14,56,0,0,0,0,0
1564765232500,-23,-13,54,0,0,0,0,0
1564765232531.25,-27,-13,55,0,0,0,0,0
1564765232562.5,-27,-13,57,0,0,0,0,0
1564765232593.75,-27,-14,57,0,0,0,0,0
1564765232625,-27,-14,57,0,0,0,0,0
1564765232656.25,-28,-14,57,0,0,0,0,0
1564765232687.5,-29,-13,56,0,0,0,0,0
1564765232718.75,-30,-13,58,0,0,0,0,0
1564765232750,-26,-13,59,0,0,0,0,0
1564765232781.25,-22,-12,58,0,0,0,0,0
1564765232812.5,-21,-12,59,0,0,0,0,0
1564765232843.75,-21,-13,58,0,0,0,0,0
1564765232875,-22,-13,58,0,0,0,0,0
1564765232906.25,-22,-13,59,0,0,0,0,0
1564765232937.5,-23,-13,60,0,0,0,0,0
1564765232968.75,-23,-13,60,0,0,0,0,0
1564765233000,-25,-12,59,0,0,0,0,0
1564765233031.25,-24,-12,59,0,0,0,0,0
1564765233062.5,-23,-11,58,0,0,0,0,0
1564765233093.75,-24,-11,58,0,0,0,0,0
1564765233125,-23,-11,58,0,0,0,0,0
1564765233156.25,-25,-12,59,0,0,0,0,0
1564765233187.5,-24,-13,59,0,0,0,0,0
1564765233218.75,-25,-12,60,0,0,0,0,0
1564765233250,-24,-12,60,0,0,0,0,0
1564765233281.25,-24,-12,59,0,0,0,0,0
1564765233312.5,-24,-12,60,0,0,0,0,0
1564765233343.75,-23,-12,58,0,0,0,0,0
1564765233375,-23,-12,58,0,0,0,0,0
1564765233406.25,-24,-11,58,0,0,0,0,0
1564765233437.5,-22,-11,60,0,0,0,0,0
1564765233468.75,-22,-11,59,0,0,0,0,0
1564765233500,-24,-13,58,0,0,0,0,0
1564765233531.25,-24,-13,60,0,0,0,0,0
1564765233562.5,-23,-13,59,0,0,0,0,0
1564765233593.75,-22,-12,58,0,0,0,0,0
1564765233625,-23,-12,58,0,0,0,0,0
1564765233656.25,-23,-12,58,0,0,0,0,0
1564765233687.5,-23,-12,59,0,0,0,0,0
1564765233718.75,-24,-12,58,0,0,0,0,0
1564765233750,-25,-12,58,0,0,0,0,0
1564765233781.25,-25,-12,58,0,0,0,0,0
1564765233812.5,-26,-13,57,0,0,0,0,0
1564765233843.75,-26,-12,60,0,0,0,0,0
1564765233875,-25,-12,60,0,0,0,0,0
1564765233906.25,-25,-12,58,0,0,0,0,0
1564765233937.5,-25,-12,58,0,0,0,0,0
1564765233968.75,-25,-11,60,0,0,0,0,0
1564765234000,-24,-12,58,0,0,0,0,0
1564765234031.25,-23,-12,58,0,0,0,0,0
1564765234062.5,-24,-14,57,0,0,0,0,0
1564765234093.75,-26,-14,56,0,0,0,0,0
1564765234125,-29,-14,59,0,0,0,0,0
1564765234156.25,-27,-14,61,0,0,0,0,0
1564765234187.5,-19,-15,58,0,0,0,0,0
1564765234218.75,-19,-15,56,0,0,0,0,0
1564765234250,-25,-13,56,0,0,0,0,0
1564765234281.25,-32,-14,55,0,0,0,0,0
1564765234312.5,-29,-16,58,0,0,0,0,0
1564765234343.75,-25,-16,58,0,0,0,0,0
1564765234375,-24,-14,57,0,0,0,0,0
1564765234406.25,-26,-14,56,0,0,0,0,0
1564765234437.5,-28,-14,56,0,0,0,0,0
1564765234468.75,-29,-15,56,0,0,0,0,0
1564765234500,-28,-15,57,0,0,0,0,0
1564765234531.25,-27,-16,57,0,0,0,0,0
1564765234562.5,-26,-15,57,0,0,0,0,0
1564765234593.75,-29,-15,56,0,0,0,0,0
1564765234625,-29,-15,54,0,0,0,0,0
1564765234656.25,-29,-14,54,0,0,0,0,0
1564765234687.5,-30,-13,56,0,0,0,0,0
1564765234718.75,-27,-14,54,0,0,0,0,0
1564765234750,-28,-13,56,0,0,0,0,0
1564765234781.25,-31,-14,56,0,0,0,0,0
1564765234812.5,-30,-13,55,0,0,0,0,0
1564765234843.75,-31,-12,56,0,0,0,0,0
1564765234875,-33,-14,56,0,0,0,0,0
1564765234906.25,-32,-14,55,0,0,0,0,0
1564765234937.5,-31,-14,56,0,0,0,0,0
1564765234968.75,-31,-14,57,0,0,0,0,0
1564765235000,-29,-12,56,0,0,0,0,0
1564765235031.25,-29,-11,55,0,0,0,0,0
1564765235062.5,-30,-10,56,0,0,0,0,0
1564765235093.75,-30,-6,56,0,0,0,0,0
1564765235125,-34,-9,57,0,0,0,0,0
1564765235156.25,-38,-15,49,0,0,0,0,0
1564765235187.5,-33,-14,50,0,0,0,0,0
1564765235218.75,-32,-12,55,0,0,0,0,0
1564765235250,-34,-11,57,0,0,0,0,0
1564765235281.25,-34,-11,53,0,0,0,0,0
1564765235312.5,-34,-11,54,0,0,0,0,0
1564765235343.75,-35,-11,55,0,0,0,0,0
1564765235375,-33,-11,54,0,0,0,0,0
1564765235406.25,-35,-10,56,0,0,0,0,0
1564765235437.5,-33,-11,54,0,0,0,0,0
1564765235468.75,-33,-10,55,0,0,0,0,0
1564765235500,-34,-8,56,0,0,0,0,0
1564765235531.25,-35,-9,54,0,0,0,0,0
1564765235562.5,-31,-9,55,0,0,0,0,0
1564765235593.75,-30,-9,55,0,0,0,0,0
1564765235625,-30,-9,55,0,0,0,0,0
1564765235656.25,-31,-9,54,0,0,0,0,0
1564765235687.5,-34,-9,54,0,0,0,0,0
1564765235718.75,-34,-10,55,0,0,0,0,0
1564765235750,-32,-9,55,0,0,0,0,0
1564765235781.25,-32,-7,56,0,0,0,0,0
1564765235812.5,-32,-7,56,0,0,0,0,0
1564765235843.75,-31,-8,55,0,0,0,0,0
1564765235875,-31,-7,55,0,0,0,0,0
1564765235906.25,-34,-8,55,0,0,0,0,0
1564765235937.5,-34,-8,55,0,0,0,0,0
1564765235968.75,-33,-7,56,0,0,0,0,0
1564765236000,-32,-7,56,0,0,0,0,0
1564765236031.25,-31,-6,55,0,0,0,0,0
1564765236062.5,-32,-6,54,0,0,0,0,0
1564765236093.75,-33,-6,55,0,0,0,0,0
1564765236125,-34,-6,56,0,0,0,0,0
1564765236156.25,-34,-6,55,0,0,0,0,0
1564765236187.5,-32,-5,56,0,0,0,0,0
1564765236218.75,-31,-5,57,0,0,0,0,0
1564765236250,-35,-6,55,0,0,0,0,0
1564765236281.25,-36,-7,54,0,0,0,0,0
1564765236312.5,-35,-8,52,0,0,0,0,0
1564765236343.75,-34,-7,53,0,0,0,0,0
1564765236375,-33,-7,55,0,0,0,0,0
1564765236406.25,-35,-7,54,0,0,0,0,0
1564765236437.5,-35,-7,54,0,0,0,0,0
1564765236468.75,-36,-7,54,0,0,0,0,0
1564765236500,-35,-6,54,0,0,0,0,0
1564765236531.25,-35,-7,54,0,0,0,0,0
1564765236562.5,-35,-7,54,0,0,0,0,0
1564765236593.75,-34,-7,54,0,0,0,0,0
1564765236625,-34,-7,53,0,0,0,0,0
1564765236656.25,-34,-7,55,0,0,0,0,0
1564765236687.5,-35,-7,54,0,0,0,0,0
1564765236718.75,-33,-7,55,0,0,0,0,0
1564765236750,-33,-7,55,0,0,0,0,0
1564765236781.25,-33,-7,55,0,0,0,0,0
1564765236812.5,-33,-8,53,0,0,0,0,0
1564765236843.75,-34,-7,55,0,0,0,0,0
1564765236875,-36,-8,54,0,0,0,0,0
1564765236906.25,-36,-9,54,0,0,0,0,0
1564765236937.5,-34,-9,54,0,0,0,0,0
1564765236968.75,-35,-8,54,0,0,0,0,0
1564765237000,-33,-6,56,0,0,0,0,0
1564765237031.25,-35,-7,56,0,0,0,0,0
1564765237062.5,-34,-6,56,0,0,0,0,0
1564765237093.75,-33,-6,57,0,0,0,0,0
1564765237125,-31,-6,57,0,0,0,0,0
1564765237156.25,-31,-7,56,0,0,0,0,0
1564765237187.5,-31,-6,56,0,0,0,0,0
1564765237218.75,-31,-7,54,0,0,0,0,0
1564765237250,-31,-7,55,0,0,0,0,0
1564765237281.25,-33,-6,56,0,0,0,0,0
1564765237312.5,-35,-6,55,0,0,0,0,0
1564765237343.75,-30,-5,58,0,0,0,0,0
1564765237375,-25,-6,59,0,0,0,0,0
1564765237406.25,-27,-6,58,0,0,0,0,0
1564765237437.5,-27,-5,59,0,0,0,0,0
1564765237468.75,-28,-5,59,0,0,0,0,0
1564765237500,-26,-5,59,0,0,0,0,0
1564765237531.25,-26,-5,57,0,0,0,0,0
1564765237562.5,-25,-4,58,0,0,0,0,0
1564765237593.75,-26,-4,58,0,0,0,0,0
1564765237625,-26,-4,59,0,0,0,0,0
1564765237656.25,-26,-4,59,0,0,0,0,0
1564765237687.5,-24,-3,61,0,0,0,0,0
1564765237718.75,-23,-4,59,0,0,0,0,0
1564765237750,-23,-5,58,0,0,0,0,0
1564765237781.25,-22,-5,58,0,0,0,0,0
1564765237812.5,-29,-5,58,0,0,0,0,0
1564765237843.75,-37,-7,55,0,0,0,0,0
1564765237875,-33,-7,56,0,0,0,0,0
1564765237906.25,-28,-6,58,0,0,0,0,0
1564765237937.5,-30,-6,58,0,0,0,0,0
1564765237968.75,-31,-7,56,0,0,0,0,0
1564765238000,-30,-6,55,0,0,0,0,0
1564765238031.25,-29,-5,56,0,0,0,0,0
1564765238062.5,-34,-5,56,0,0,0,0,0
1564765238093.75,-34,-7,56,0,0,0,0,0
1564765238125,-33,-7,56,0,0,0,0,0
1564765238156.25,-32,-7,56,0,0,0,0,0
1564765238187.5,-32,-6,55,0,0,0,0,0
1564765238218.75,-35,-7,53,0,0,0,0,0
1564765238250,-32,-6,54,0,0,0,0,0
1564765238281.25,-35,-6,55,0,0,0,0,0
1564765238312.5,-34,-6,55,0,0,0,0,0
1564765238343.75,-34,-6,54,0,0,0,0,0
1564765238375,-36,-7,53,0,0,0,0,0
1564765238406.25,-35,-7,54,0,0,0,0,0
1564765238437.5,-35,-7,54,0,0,0,0,0
1564765238468.75,-36,-6,55,0,0,0,0,0
1564765238500,-34,-6,54,0,0,0,0,0
1564765238531.25,-35,-6,52,0,0,0,0,0
1564765238562.5,-37,-7,52,0,0,0,0,0
1564765238593.75,-36,-7,52,0,0,0,0,0
1564765238625,-35,-7,52,0,0,0,0,0
1564765238656.25,-33,-6,54,0,0,0,0,0
1564765238687.5,-28,-7,51,0,0,0,0,0
1564765238718.75,-40,-5,54,0,0,0,0,0
1564765238750,-40,-7,48,0,0,0,0,0
1564765238781.25,-40,-5,51,0,0,0,0,0
1564765238812.5,-44,-6,51,0,0,0,0,0
1564765238843.75,-43,-6,50,0,0,0,0,0
1564765238875,-41,-6,50,0,0,0,0,0
1564765238906.25,-42,-6,49,0,0,0,0,0
1564765238937.5,-40,-5,49,0,0,0,0,0
1564765238968.75,-40,-5,50,0,0,0,0,0
1564765239000,-41,-6,49,0,0,0,0,0
1564765239031.25,-41,-6,49,0,0,0,0,0
1564765239062.5,-41,-6,49,0,0,0,0,0
1564765239093.75,-42,-7,48,0,0,0,0,0
1564765239125,-41,-7,48,0,0,0,0,0
1564765239156.25,-41,-6,48,0,0,0,0,0
1564765239187.5,-42,-6,48,0,0,0,0,0
1564765239218.75,-42,-7,48,0,0,0,0,0
1564765239250,-41,-6,48,0,0,0,0,0
1564765239281.25,-42,-6,48,0,0,0,0,0
1564765239312.5,-42,-6,47,0,0,0,0,0
1564765239343.75,-42,-6,47,0,0,0,0,0
1564765239375,-42,-5,48,0,0,0,0,0
1564765239406.25,-44,-6,46,0,0,0,0,0
1564765239437.5,-42,-5,47,0,0,0,0,0
1564765239468.75,-43,-5,47,0,0,0,0,0
1564765239500,-43,-5,46,0,0,0,0,0
1564765239531.25,-44,-5,46,0,0,0,0,0
1564765239562.5,-47,-6,44,0,0,0,0,0
1564765239593.75,-48,-6,44,0,0,0,0,0
1564765239625,-47,-5,46,0,0,0,0,0
1564765239656.25,-46,-5,45,0,0,0,0,0
1564765239687.5,-46,-5,44,0,0,0,0,0
1564765239718.75,-47,-4,44,0,0,0,0,0
1564765239750,-47,-3,46,0,0,0,0,0
1564765239781.25,-47,-4,45,0,0,0,0,0
1564765239812.5,-47,-5,41,0,0,0,0,0
1564765239843.75,-47,-3,44,0,0,0,0,0
1564765239875,-48,-4,44,0,0,0,0,0
1564765239906.25,-45,-4,43,0,0,0,0,0
1564765239937.5,-47,-5,42,0,0,0,0,0
1564765239968.75,-50,-6,40,0,0,0,0,0
1564765240000,-51,-6,40,0,0,0,0,0
1564765240031.25,-51,-5,41,0,0,0,0,0
1564765240062.5,-47,-5,41,0,0,0,0,0
1564765240093.75,-46,-5,41,0,0,0,0,0
1564765240125,-51,-5,41,0,0,0,0,0
1564765240156.25,-53,-6,39,0,0,0,0,0
1564765240187.5,-50,-6,38,0,0,0,0,0
1564765240218.75,-50,-6,39,0,0,0,0,0
1564765240250,-50,-6,39,0,0,0,0,0
1564765240281.25,-49,-5,39,0,0,0,0,0
1564765240312.5,-55,-6,32,0,0,0,0,0
1564765240343.75,-55,-7,24,0,0,0,0,0
1564765240375,-59,-7,24,0,0,0,0,0
1564765240406.25,-60,-7,22,0,0,0,0,0
1564765240437.5,-59,-7,21,0,0,0,0,0
1564765240468.75,-59,-5,22,0,0,0,0,0
1564765240500,-59,-7,18,0,0,0,0,0
1564765240531.25,-64,-9,8,0,0,0,0,0
1564765240562.5,-60,-7,9,0,0,0,0,0
1564765240593.75,-68,-10,-8,0,0,0,0,0
1564765240625,-63,-10,-7,0,0,0,0,0
1564765240656.25,-62,-7,-5,0,0,0,0,0
1564765240687.5,-63,-6,-3,0,0,0,0,0
1564765240718.75,-61,-5,-4,0,0,0,0,0
1564765240750,-61,-5,-11,0,0,0,0,0
1564765240781.25,-62,-7,-15,0,0,0,0,0
1564765240812.5,-63,-9,-25,0,0,0,0,0
1564765240843.75,-63,-9,-33,0,0,0,0,0
1564765240875,-63,-8,-34,0,0,0,0,0
1564765240906.25,-60,-7,-27,0,0,0,0,0
1564765240937.5,-58,-3,-13,0,0,0,0,0
1564765240968.75,-57,-3,-11,0,0,0,0,0
1564765241000,-60,-5,-17,0,0,0,0,0
1564765241031.25,-62,-7,-21,0,0,0,0,0
1564765241062.5,-62,-8,-22,0,0,0,0,0
1564765241093.75,-62,-7,-19,0,0,0,0,0
1564765241125,-60,-7,-18,0,0,0,0,0
1564765241156.25,-60,-6,-15,0,0,0,0,0
1564765241187.5,-59,-7,-14,0,0,0,0,0
1564765241218.75,-56,-5,-10,0,0,0,0,0
1564765241250,-58,-5,-14,0,0,0,0,0
1564765241281.25,-61,-5,-27,0,0,0,0,0
1564765241312.5,-60,-7,-35,0,0,0,0,0
1564765241343.75,-58,-7,-35,0,0,0,0,0
1564765241375,-58,-4,-30,0,0,0,0,0
1564765241406.25,-56,-3,-27,0,0,0,0,0
1564765241437.5,-56,-4,-26,0,0,0,0,0
1564765241468.75,-57,-4,-27,0,0,0,0,0
1564765241500,-56,-5,-30,0,0,0,0,0
1564765241531.25,-55,-4,-30,0,0,0,0,0
1564765241562.5,-56,-3,-29,0,0,0,0,0
1564765241593.75,-56,-2,-28,0,0,0,0,0
1564765241625,-54,-1,-28,0,0,0,0,0
1564765241656.25,-55,-2,-31,0,0,0,0,0
1564765241687.5,-58,0,-33,0,0,0,0,0
1564765241718.75,-58,3,-30,0,0,0,0,0
1564765241750,-55,4,-30,0,0,0,0,0
1564765241781.25,-54,4,-32,0,0,0,0,0
1564765241812.5,-56,3,-33,0,0,0,0,0
1564765241843.75,-56,3,-29,0,0,0,0,0
1564765241875,-56,4,-27,0,0,0,0,0
1564765241906.25,-57,1,-29,0,0,0,0,0
1564765241937.5,-59,0,-30,0,0,0,0,0
1564765241968.75,-62,-3,-29,0,0,0,0,0
1564765242000,-63,-5,-27,0,0,0,0,0
1564765242031.25,-58,-4,-20,0,0,0,0,0
1564765242062.5,-59,1,-4,0,0,0,0,0
1564765242093.75,-64,2,-3,0,0,0,0,0
1564765242125,-63,3,-3,0,0,0,0,0
1564765242156.25,-63,4,-4,0,0,0,0,0
1564765242187.5,-61,8,-4,0,0,0,0,0
1564765242218.75,-62,8,-4,0,0,0,0,0
1564765242250,-65,9,-3,0,0,0,0,0
1564765242281.25,-64,8,-1,0,0,0,0,0
1564765242312.5,-63,4,1,0,0,0,0,0
1564765242343.75,-63,1,-1,0,0,0,0,0
1564765242375,-62,0,-1,0,0,0,0,0
1564765242406.25,-58,3,0,0,0,0,0,0
1564765242437.5,-58,2,-3,0,0,0,0,0
1564765242468.75,-64,1,-13,0,0,0,0,0
1564765242500,-66,1,-17,0,0,0,0,0
1564765242531.25,-59,2,-15,0,0,0,0,0
1564765242562.5,-59,2,-15,0,0,0,0,0
1564765242593.75,-62,0,-21,0,0,0,0,0
1564765242625,-61,-1,-20,0,0,0,0,0
1564765242656.25,-61,-1,-19,0,0,0,0,0
1564765242687.5,-62,0,-18,0,0,0,0,0
1564765242718.75,-60,1,-16,0,0,0,0,0
1564765242750,-59,2,-19,0,0,0,0,0
1564765242781.25,-60,2,-22,0,0,0,0,0
1564765242812.5,-60,2,-26,0,0,0,0,0
1564765242843.75,-60,3,-27,0,0,0,0,0
1564765242875,-60,3,-25,0,0,0,0,0
1564765242906.25,-59,3,-24,0,0,0,0,0
1564765242937.5,-59,1,-24,0,0,0,0,0
1564765242968.75,-59,0,-25,0,0,0,0,0
1564765243000,-58,0,-26,0,0,0,0,0
1564765243031.25,-58,0,-25,0,0,0,0,0
1564765243062.5,-59,-1,-26,0,0,0,0,0
1564765243093.75,-59,-1,-26,0,0,0,0,0
1564765243125,-58,0,-26,0,0,0,0,0
1564765243156.25,-59,0,-27,0,0,0,0,0
1564765243187.5,-58,1,-27,0,0,0,0,0
1564765243218.75,-58,2,-26,0,0,0,0,0
1564765243250,-58,1,-26,0,0,0,0,0
1564765243281.25,-59,0,-27,0,0,0,0,0
1564765243312.5,-58,-1,-25,0,0,0,0,0
1564765243343.75,-58,-1,-24,0,0,0,0,0
1564765243375,-57,-3,-25,0,0,0,0,0
1564765243406.25,-57,-3,-24,0,0,0,0,0
1564765243437.5,-56,-3,-25,0,0,0,0,0
1564765243468.75,-56,-3,-29,0,0,0,0,0
1564765243500,-57,-3,-32,0,0,0,0,0
1564765243531.25,-57,-3,-35,0,0,0,0,0
1564765243562.5,-56,-2,-36,0,0,0,0,0
1564765243593.75,-55,-1,-34,0,0,0,0,0
1564765243625,-55,-1,-28,0,0,0,0,0
1564765243656.25,-56,-2,-26,0,0,0,0,0
1564765243687.5,-55,-2,-28,0,0,0,0,0
1564765243718.75,-56,-3,-33,0,0,0,0,0
1564765243750,-56,-3,-34,0,0,0,0,0
1564765243781.25,-55,-2,-31,0,0,0,0,0
1564765243812.5,-55,-1,-31,0,0,0,0,0
1564765243843.75,-54,-1,-30,0,0,0,0,0
1564765243875,-54,-1,-31,0,0,0,0,0
1564765243906.25,-54,-1,-34,0,0,0,0,0
1564765243937.5,-54,-2,-35,0,0,0,0,0
1564765243968.75,-54,-2,-38,0,0,0,0,0
1564765244000,-54,-1,-35,0,0,0,0,0
1564765244031.25,-54,-1,-33,0,0,0,0,0
1564765244062.5,-53,-2,-33,0,0,0,0,0
1564765244093.75,-53,-3,-35,0,0,0,0,0
1564765244125,-53,-3,-37,0,0,0,0,0
1564765244156.25,-52,-2,-35,0,0,0,0,0
1564765244187.5,-51,-1,-32,0,0,0,0,0
1564765244218.75,-53,-2,-36,0,0,0,0,0
1564765244250,-53,-2,-41,0,0,0,0,0
1564765244281.25,-52,-2,-41,0,0,0,0,0
1564765244312.5,-51,-2,-38,0,0,0,0,0
1564765244343.75,-51,-3,-37,0,0,0,0,0
1564765244375,-50,-3,-36,0,0,0,0,0
1564765244406.25,-51,-2,-36,0,0,0,0,0
1564765244437.5,-49,-3,-39,0,0,0,0,0
1564765244468.75,-52,-4,-41,0,0,0,0,0
1564765244500,-51,-3,-42,0,0,0,0,0
1564765244531.25,-50,-2,-38,0,0,0,0,0
1564765244562.5,-51,-1,-37,0,0,0,0,0
1564765244593.75,-50,-1,-36,0,0,0,0,0
1564765244625,-50,-1,-37,0,0,0,0,0
1564765244656.25,-50,-2,-38,0,0,0,0,0
1564765244687.5,-50,-2,-39,0,0,0,0,0
1564765244718.75,-50,-3,-41,0,0,0,0,0
1564765244750,-50,-2,-43,0,0,0,0,0
1564765244781.25,-49,-2,-41,0,0,0,0,0
1564765244812.5,-49,-1,-38,0,0,0,0,0
1564765244843.75,-50,-1,-39,0,0,0,0,0
1564765244875,-51,-1,-40,0,0,0,0,0
1564765244906.25,-51,-1,-40,0,0,0,0,0
1564765244937.5,-51,-2,-40,0,0,0,0,0
1564765244968.75,-53,-2,-40,0,0,0,0,0
1564765245000,-49,-1,-36,0,0,0,0,0
1564765245031.25,-50,0,-32,0,0,0,0,0
1564765245062.5,-52,0,-33,0,0,0,0,0
1564765245093.75,-53,-1,-37,0,0,0,0,0
1564765245125,-53,-2,-39,0,0,0,0,0
1564765245156.25,-52,-1,-37,0,0,0,0,0
1564765245187.5,-52,0,-36,0,0,0,0,0
1564765245218.75,-52,-1,-35,0,0,0,0,0
1564765245250,-52,-2,-37,0,0,0,0,0
1564765245281.25,-53,-3,-36,0,0,0,0,0
1564765245312.5,-53,-3,-35,0,0,0,0,0
1564765245343.75,-52,-3,-34,0,0,0,0,0
1564765245375,-53,-3,-36,0,0,0,0,0
1564765245406.25,-53,-2,-37,0,0,0,0,0
1564765245437.5,-54,1,-36,0,0,0,0,0
1564765245468.75,-53,1,-35,0,0,0,0,0
1564765245500,-52,1,-35,0,0,0,0,0
1564765245531.25,-52,0,-36,0,0,0,0,0
1564765245562.5,-53,-1,-36,0,0,0,0,0
1564765245593.75,-53,-2,-37,0,0,0,0,0
1564765245625,-53,-3,-36,0,0,0,0,0
1564765245656.25,-54,-4,-35,0,0,0,0,0
1564765245687.5,-54,-4,-33,0,0,0,0,0
1564765245718.75,-53,-3,-31,0,0,0,0,0
1564765245750,-53,-3,-32,0,0,0,0,0
1564765245781.25,-54,-2,-35,0,0,0,0,0
1564765245812.5,-55,-1,-35,0,0,0,0,0
1564765245843.75,-54,-1,-35,0,0,0,0,0
1564765245875,-54,-2,-37,0,0,0,0,0
1564765245906.25,-57,-3,-36,0,0,0,0,0
1564765245937.5,-55,-4,-35,0,0,0,0,0
1564765245968.75,-50,-3,-31,0,0,0,0,0
1564765246000,-50,-6,-30,0,0,0,0,0
1564765246031.25,-52,-7,-33,0,0,0,0,0
1564765246062.5,-56,-6,-37,0,0,0,0,0
1564765246093.75,-56,-5,-35,0,0,0,0,0
1564765246125,-55,-3,-29,0,0,0,0,0
1564765246156.25,-56,-4,-29,0,0,0,0,0
1564765246187.5,-58,-6,-32,0,0,0,0,0
1564765246218.75,-57,-7,-34,0,0,0,0,0
1564765246250,-54,-7,-34,0,0,0,0,0
1564765246281.25,-56,-7,-33,0,0,0,0,0
1564765246312.5,-58,-6,-31,0,0,0,0,0
1564765246343.75,-60,-4,-26,0,0,0,0,0
1564765246375,-60,-3,-22,0,0,0,0,0
1564765246406.25,-60,-1,-17,0,0,0,0,0
1564765246437.5,-66,2,-15,0,0,0,0,0
1564765246468.75,-68,-1,-20,0,0,0,0,0
1564765246500,-63,-1,-16,0,0,0,0,0
1564765246531.25,-63,1,-1,0,0,0,0,0
1564765246562.5,-59,1,9,0,0,0,0,0
1564765246593.75,-54,2,26,0,0,0,0,0
1564765246625,-54,0,26,0,0,0,0,0
1564765246656.25,-59,-1,20,0,0,0,0,0
1564765246687.5,-63,-1,12,0,0,0,0,0
1564765246718.75,-63,0,10,0,0,0,0,0
1564765246750,-64,1,6,0,0,0,0,0
1564765246781.25,-67,3,4,0,0,0,0,0
1564765246812.5,-68,5,1,0,0,0,0,0
1564765246843.75,-70,6,1,0,0,0,0,0
1564765246875,-71,6,4,0,0,0,0,0
1564765246906.25,-65,5,9,0,0,0,0,0
1564765246937.5,-56,5,18,0,0,0,0,0
1564765246968.75,-58,8,24,0,0,0,0,0
1564765247000,-57,8,27,0,0,0,0,0
1564765247031.25,-57,3,25,0,0,0,0,0
1564765247062.5,-57,1,22,0,0,0,0,0
1564765247093.75,-60,1,18,0,0,0,0,0
1564765247125,-63,2,16,0,0,0,0,0
1564765247156.25,-60,3,18,0,0,0,0,0
1564765247187.5,-59,4,19,0,0,0,0,0
1564765247218.75,-62,6,18,0,0,0,0,0
1564765247250,-65,7,19,0,0,0,0,0
1564765247281.25,-62,8,22,0,0,0,0,0
1564765247312.5,-52,6,26,0,0,0,0,0
1564765247343.75,-50,5,27,0,0,0,0,0
1564765247375,-52,8,28,0,0,0,0,0
1564765247406.25,-54,10,27,0,0,0,0,0
1564765247437.5,-61,11,20,0,0,0,0,0
1564765247468.75,-62,10,17,0,0,0,0,0
1564765247500,-63,6,12,0,0,0,0,0
1564765247531.25,-64,5,11,0,0,0,0,0
1564765247562.5,-63,4,11,0,0,0,0,0
1564765247593.75,-62,6,12,0,0,0,0,0
1564765247625,-61,6,11,0,0,0,0,0
1564765247656.25,-63,5,5,0,0,0,0,0
1564765247687.5,-64,5,1,0,0,0,0,0
1564765247718.75,-65,4,-1,0,0,0,0,0
1564765247750,-65,4,-3,0,0,0,0,0
1564765247781.25,-64,3,-5,0,0,0,0,0
1564765247812.5,-63,3,-6,0,0,0,0,0
1564765247843.75,-63,3,-9,0,0,0,0,0
1564765247875,-63,2,-11,0,0,0,0,0
1564765247906.25,-66,2,-14,0,0,0,0,0
1564765247937.5,-66,1,-15,0,0,0,0,0
1564765247968.75,-62,-1,-12,0,0,0,0,0
1564765248000,-62,-1,-11,0,0,0,0,0
1564765248031.25,-62,-1,-11,0,0,0,0,0
1564765248062.5,-61,0,-14,0,0,0,0,0
1564765248093.75,-61,1,-13,0,0,0,0,0
1564765248125,-64,3,-17,0,0,0,0,0
1564765248156.25,-62,3,-15,0,0,0,0,0
1564765248187.5,-61,5,-17,0,0,0,0,0
1564765248218.75,-61,6,-20,0,0,0,0,0
1564765248250,-60,6,-24,0,0,0,0,0
1564765248281.25,-60,6,-25,0,0,0,0,0
1564765248312.5,-59,5,-24,0,0,0,0,0
1564765248343.75,-62,5,-29,0,0,0,0,0
1564765248375,-65,5,-32,0,0,0,0,0
1564765248406.25,-73,3,-18,0,0,0,0,0
1564765248437.5,-84,-1,-17,0,0,0,0,0
1564765248468.75,-81,-7,-24,0,0,0,0,0
1564765248500,-77,-15,-27,0,0,0,0,0
1564765248531.25,-80,-28,-43,0,0,0,0,0
1564765248562.5,-75,-33,-48,0,0,0,0,0
1564765248593.75,-64,-36,-42,0,0,0,0,0
1564765248625,-50,-36,-37,0,0,0,0,0
1564765248656.25,-45,-35,-34,0,0,0,0,0
1564765248687.5,-34,-30,-25,0,0,0,0,0
1564765248718.75,-31,-28,-20,0,0,0,0,0
1564765248750,-27,-26,-10,0,0,0,0,0
1564765248781.25,-29,-27,-7,0,0,0,0,0
1564765248812.5,-25,-29,3,0,0,0,0,0
1564765248843.75,-27,-32,5,1,0,0,0,0
1564765248875,-31,-38,4,1,0,0,0,0
1564765248906.25,-29,-42,8,1,0,0,0,0
1564765248937.5,-30,-42,14,1,0,0,0,0
1564765248968.75,-23,-49,11,1,0,0,0,0
1564765249000,-28,-53,3,1,0,0,0,0
1564765249031.25,-28,-57,1,1,0,0,0,0
1564765249062.5,-30,-57,3,0,0,0,0,0
1564765249093.75,-30,-57,8,0,0,0,0,0
1564765249125,-28,-57,8,0,0,0,0,0
1564765249156.25,-28,-57,6,0,0,0,0,0
1564765249187.5,-27,-57,4,0,0,0,0,0
1564765249218.75,-27,-56,5,0,0,0,0,0
1564765249250,-28,-55,6,0,0,0,0,0
1564765249281.25,-30,-57,5,0,0,0,0,0
1564765249312.5,-32,-58,5,0,0,0,0,0
1564765249343.75,-29,-57,7,0,0,0,0,0
1564765249375,-29,-57,6,0,0,0,0,0
1564765249406.25,-31,-57,2,0,0,0,0,0
1564765249437.5,-32,-56,3,0,0,0,0,0
1564765249468.75,-30,-56,5,0,0,0,0,0
1564765249500,-29,-56,6,0,0,0,0,0
1564765249531.25,-29,-55,6,0,0,0,0,0
1564765249562.5,-26,-55,8,0,0,0,0,0
1564765249593.75,-26,-56,8,0,0,0,0,0
1564765249625,-28,-57,7,0,0,0,0,0
1564765249656.25,-26,-58,7,0,0,0,0,0
1564765249687.5,-25,-58,7,0,0,0,0,0
1564765249718.75,-26,-57,8,0,0,0,0,0
1564765249750,-27,-56,9,0,0,0,0,0
1564765249781.25,-25,-57,11,0,0,0,0,0
1564765249812.5,-26,-57,11,0,0,0,0,0
1564765249843.75,-28,-56,11,0,0,0,0,0
1564765249875,-28,-57,10,0,0,0,0,0
1564765249906.25,-27,-56,10,0,0,0,0,0
1564765249937.5,-25,-57,11,0,0,0,0,0
1564765249968.75,-24,-57,11,0,0,0,0,0
1564765250000,-25,-57,10,0,0,0,0,0
1564765250031.25,-25,-57,10,0,0,0,0,0
1564765250062.5,-26,-57,10,0,0,0,0,0
1564765250093.75,-26,-57,11,0,0,0,0,0
1564765250125,-25,-57,12,0,0,0,0,0
1564765250156.25,-26,-57,12,0,0,0,0,0
1564765250187.5,-26,-56,11,0,0,0,0,0
1564765250218.75,-26,-56,11,0,0,0,0,0
1564765250250,-26,-57,10,0,0,0,0,0
1564765250281.25,-25,-57,11,0,0,0,0,0
1564765250312.5,-27,-57,10,0,0,0,0,0
1564765250343.75,-27,-57,11,0,0,0,0,0
1564765250375,-28,-57,10,0,0,0,0,0
1564765250406.25,-25,-57,12,0,0,0,0,0
1564765250437.5,-23,-56,13,0,0,0,0,0
1564765250468.75,-23,-57,11,0,0,0,0,0
1564765250500,-24,-57,11,0,0,0,0,0
1564765250531.25,-25,-58,11,0,0,0,0,0
1564765250562.5,-25,-58,11,0,0,0,0,0
1564765250593.75,-25,-58,11,0,0,0,0,0
1564765250625,-24,-57,12,0,0,0,0,0
1564765250656.25,-24,-57,10,0,0,0,0,0
1564765250687.5,-24,-56,10,0,0,0,0,0
1564765250718.75,-25,-56,11,0,0,0,0,0
1564765250750,-26,-56,12,0,0,0,0,0
1564765250781.25,-26,-56,12,0,0,0,0,0
1564765250812.5,-26,-55,14,0,0,0,0,0
1564765250843.75,-25,-55,13,0,0,0,0,0
1564765250875,-24,-55,13,0,0,0,0,0
1564765250906.25,-23,-56,13,0,0,0,0,0
1564765250937.5,-23,-57,12,0,0,0,0,0
1564765250968.75,-25,-58,13,0,0,0,0,0
1564765251000,-26,-58,13,0,0,0,0,0
1564765251031.25,-27,-57,12,0,0,0,0,0
1564765251062.5,-27,-57,12,0,0,0,0,0
1564765251093.75,-27,-57,11,0,0,0,0,0
1564765251125,-27,-57,12,0,0,0,0,0
1564765251156.25,-25,-55,12,0,0,0,0,0
1564765251187.5,-26,-55,12,0,0,0,0,0
1564765251218.75,-26,-56,12,0,0,0,0,0
1564765251250,-27,-56,11,0,0,0,0,0
1564765251281.25,-27,-56,11,0,0,0,0,0
1564765251312.5,-26,-57,12,0,0,0,0,0
1564765251343.75,-26,-57,13,0,0,0,0,0
1564765251375,-26,-57,12,0,0,0,0,0
1564765251406.25,-26,-57,12,0,0,0,0,0
1564765251437.5,-25,-57,11,0,0,0,0,0
1564765251468.75,-25,-57,11,0,0,0,0,0
1564765251500,-25,-57,11,0,0,0,0,0
1564765251531.25,-25,-57,11,0,0,0,0,0
1564765251562.5,-25,-56,12,0,0,0,0,0
1564765251593.75,-30,-57,10,0,0,0,0,0
1564765251625,-32,-57,10,0,0,0,0,0
1564765251656.25,-30,-57,10,0,0,0,0,0
1564765251687.5,-28,-56,11,0,0,0,0,0
1564765251718.75,-26,-55,11,0,0,0,0,0
1564765251750,-27,-55,12,0,0,0,0,0
1564765251781.25,-28,-55,11,0,0,0,0,0
1564765251812.5,-29,-55,12,0,0,0,0,0
1564765251843.75,-29,-55,12,0,0,0,0,0
1564765251875,-29,-55,13,0,0,0,0,0
1564765251906.25,-27,-54,13,0,0,0,0,0
1564765251937.5,-29,-54,13,0,0,0,0,0
1564765251968.75,-29,-54,12,0,0,0,0,0
1564765252000,-30,-54,13,0,0,0,0,0
1564765252031.25,-30,-54,14,0,0,0,0,0
1564765252062.5,-30,-54,13,0,0,0,0,0
1564765252093.75,-30,-54,13,0,0,0,0,0
1564765252125,-29,-54,13,0,0,0,0,0
1564765252156.25,-29,-54,14,0,0,0,0,0
1564765252187.5,-33,-55,13,0,0,0,0,0
1564765252218.75,-34,-54,14,0,0,0,0,0
1564765252250,-35,-55,14,0,0,0,0,0
1564765252281.25,-30,-53,17,0,0,0,0,0
1564765252312.5,-33,-52,15,0,0,0,0,0
1564765252343.75,-33,-51,15,0,0,0,0,0
1564765252375,-31,-50,17,0,0,0,0,0
1564765252406.25,-31,-51,15,0,0,0,0,0
1564765252437.5,-29,-51,15,0,0,0,0,0
1564765252468.75,-28,-52,15,0,0,0,0,0
1564765252500,-29,-51,13,0,0,0,0,0
1564765252531.25,-30,-49,14,0,0,0,0,0
1564765252562.5,-31,-49,14,0,0,0,0,0
1564765252593.75,-31,-50,13,0,0,0,0,0
1564765252625,-32,-56,9,0,0,0,0,0
1564765252656.25,-33,-56,8,0,0,0,0,0
1564765252687.5,-38,-52,18,0,0,0,0,0
1564765252718.75,-39,-52,20,0,0,0,0,0
1564765252750,-43,-51,15,0,0,0,0,0
1564765252781.25,-42,-50,11,0,0,0,0,0
1564765252812.5,-40,-50,8,0,0,0,0,0
1564765252843.75,-40,-48,8,0,0,0,0,0
1564765252875,-32,-49,13,0,0,0,0,0
1564765252906.25,-36,-51,12,0,0,0,0,0
1564765252937.5,-39,-52,11,0,0,0,0,0
1564765252968.75,-39,-52,11,0,0,0,0,0
1564765253000,-38,-50,13,0,0,0,0,0
1564765253031.25,-36,-49,12,0,0,0,0,0
1564765253062.5,-34,-49,12,0,0,0,0,0
1564765253093.75,-30,-50,13,0,0,0,0,0
1564765253125,-29,-50,13,0,0,0,0,0
1564765253156.25,-22,-53,13,0,0,0,0,0
1564765253187.5,-21,-55,10,0,0,0,0,0
1564765253218.75,-28,-55,7,0,0,0,0,0
1564765253250,-38,-50,9,0,0,0,0,0
1564765253281.25,-41,-49,9,0,0,0,0,0
1564765253312.5,-40,-50,8,0,0,0,0,0
1564765253343.75,-35,-51,7,0,0,0,0,0
1564765253375,-36,-51,4,0,0,0,0,0
1564765253406.25,-40,-50,8,0,0,0,0,0
1564765253437.5,-39,-47,19,0,0,0,0,0
1564765253468.75,-40,-48,16,0,0,0,0,0
1564765253500,-41,-48,12,0,0,0,0,0
1564765253531.25,-36,-47,15,0,0,0,0,0
1564765253562.5,-41,-50,9,0,0,0,0,0
1564765253593.75,-38,-52,14,0,0,0,0,0
1564765253625,-35,-54,16,0,0,0,0,0
1564765253656.25,-45,-64,2,0,0,0,0,0
1564765253687.5,-42,-61,8,0,0,0,0,0
1564765253718.75,-30,-58,21,0,0,0,0,0
1564765253750,-11,-53,29,0,0,0,0,0
1564765253781.25,2,-51,37,0,0,0,0,0
1564765253812.5,0,-52,35,0,0,0,0,0
1564765253843.75,-16,-52,28,0,0,0,0,0
1564765253875,-21,-52,30,0,0,0,0,0
1564765253906.25,-19,-53,31,0,0,0,0,0
1564765253937.5,-13,-54,32,0,0,0,0,0
1564765253968.75,-11,-53,32,0,0,0,0,0
1564765254000,-12,-53,31,0,0,0,0,0
1564765254031.25,-13,-54,30,0,0,0,0,0
1564765254062.5,-15,-53,30,0,0,0,0,0
1564765254093.75,-15,-53,31,0,0,0,0,0
1564765254125,-15,-52,32,0,0,0,0,0
1564765254156.25,-12,-52,34,0,0,0,0,0
1564765254187.5,-4,-52,36,0,0,0,0,0
1564765254218.75,-4,-53,35,0,0,0,0,0
1564765254250,-5,-53,34,0,0,0,0,0
1564765254281.25,-6,-53,35,0,0,0,0,0
1564765254312.5,-6,-53,34,0,0,0,0,0
1564765254343.75,-4,-53,34,0,0,0,0,0
1564765254375,0,-53,35,0,0,0,0,0
1564765254406.25,-3,-54,31,0,0,0,0,0
1564765254437.5,-11,-55,31,0,0,0,0,0
1564765254468.75,-18,-60,32,0,0,0,0,0
1564765254500,-19,-63,25,0,0,0,0,0
1564765254531.25,-8,-59,17,0,0,0,0,0
1564765254562.5,-6,-55,28,0,0,0,0,0
1564765254593.75,-11,-55,25,0,0,0,0,0
1564765254625,-15,-55,25,0,0,0,0,0
1564765254656.25,-14,-56,27,0,0,0,0,0
1564765254687.5,-11,-58,29,0,0,0,0,0
1564765254718.75,-8,-57,27,0,0,0,0,0
1564765254750,-7,-56,27,0,0,0,0,0
1564765254781.25,-8,-57,27,0,0,0,0,0
1564765254812.5,-10,-58,29,0,0,0,0,0
1564765254843.75,-10,-58,30,0,0,0,0,0
1564765254875,-8,-56,31,0,0,0,0,0
1564765254906.25,-4,-57,30,0,0,0,0,0
1564765254937.5,-4,-58,29,0,0,0,0,0
1564765254968.75,-4,-57,31,0,0,0,0,0
1564765255000,-2,-57,32,0,0,0,0,0
1564765255031.25,-4,-55,31,0,0,0,0,0
1564765255062.5,-5,-55,30,0,0,0,0,0
1564765255093.75,-4,-53,29,0,0,0,0,0
1564765255125,-6,-53,28,0,0,0,0,0
1564765255156.25,-9,-52,28,0,0,0,0,0
1564765255187.5,-12,-51,31,0,0,0,0,0
1564765255218.75,-11,-50,33,0,0,0,0,0
1564765255250,-9,-47,35,0,0,0,0,0
1564765255281.25,-14,-49,33,0,0,0,0,0
1564765255312.5,-7,-45,36,0,0,0,0,0
1564765255343.75,-3,-40,34,0,0,0,0,0
1564765255375,3,-29,30,0,0,0,0,0
1564765255406.25,4,-26,33,0,0,0,0,0
1564765255437.5,4,-23,22,0,0,0,0,0
1564765255468.75,2,-27,16,0,0,0,0,0
1564765255500,3,-22,26,0,0,0,0,0
1564765255531.25,9,-26,23,0,0,0,0,0
1564765255562.5,9,-3,26,0,0,0,0,0
1564765255593.75,-82,59,33,0,0,0,0,0
1564765255625,-120,67,19,0,0,0,0,0
1564765255656.25,-46,103,117,0,0,0,0,0
1564765255687.5,-103,67,40,0,0,0,0,0
1564765255718.75,-58,44,27,0,0,0,0,0
1564765255750,-36,40,15,0,0,0,0,0
1564765255781.25,-31,51,2,0,0,0,0,0
1564765255812.5,-116,127,127,0,0,0,0,0
1564765255843.75,-30,14,-22,0,0,0,0,0
1564765255875,-38,81,7,0,0,0,0,0
1564765255906.25,-17,109,10,0,0,0,0,0
1564765255937.5,-23,64,1,0,0,0,0,0
1564765255968.75,-7,49,-23,0,0,0,0,0
1564765256000,-82,12,-3,0,0,0,0,0
1564765256031.25,-51,-4,-10,0,0,0,0,0
1564765256062.5,5,88,67,0,0,0,0,0
1564765256093.75,-14,76,-4,0,0,0,0,0
1564765256125,-21,61,9,0,0,0,0,0
1564765256156.25,-16,63,-2,0,0,0,0,0
1564765256187.5,-13,65,-3,0,0,0,0,0
1564765256218.75,-23,74,-14,0,0,0,0,0
1564765256250,-42,94,-20,0,0,0,0,0
1564765256281.25,-12,127,16,0,0,0,0,0
1564765256312.5,-13,91,1,0,0,0,0,0
1564765256343.75,2,74,-55,0,0,0,0,0
1564765256375,5,85,-35,0,0,0,0,0
1564765256406.25,4,79,-7,0,0,0,0,0
1564765256437.5,7,74,-15,0,0,0,0,0
1564765256468.75,-1,22,-31,0,0,0,0,0
1564765256500,52,48,-12,0,0,0,0,0
1564765256531.25,27,44,-5,0,0,0,0,0
1564765256562.5,-27,46,-3,0,0,0,0,0
1564765256593.75,-35,52,4,0,0,0,0,0
1564765256625,-16,52,4,0,0,0,0,0
1564765256656.25,-6,60,13,0,0,0,0,0
1564765256687.5,-52,77,6,0,0,0,0,0
1564765256718.75,-55,55,-13,0,0,0,0,0
1564765256750,-45,25,-35,0,0,0,0,0
1564765256781.25,-41,20,-56,0,0,0,0,0
1564765256812.5,-55,14,-54,0,0,0,0,0
1564765256843.75,-64,24,-46,0,0,0,0,0
1564765256875,-67,28,-35,0,0,0,0,0
1564765256906.25,-60,46,-3,0,0,0,0,0
1564765256937.5,-39,62,13,0,0,0,0,0
1564765256968.75,-56,69,1,0,0,0,0,0
1564765257000,-55,55,-13,0,0,0,0,0
1564765257031.25,-37,24,-32,0,0,0,0,0
1564765257062.5,-34,16,-37,0,0,0,0,0
1564765257093.75,-25,9,-34,0,0,0,0,0
1564765257125,-29,7,-32,0,0,0,0,0
1564765257156.25,-60,9,-23,0,0,0,0,0
1564765257187.5,-73,17,-20,0,0,0,0,0
1564765257218.75,-69,17,-19,0,0,0,0,0
1564765257250,-47,8,-20,0,0,0,0,0
1564765257281.25,-40,3,-23,0,0,0,0,0
1564765257312.5,-40,-4,-32,0,0,0,0,0
1564765257343.75,-41,-6,-35,0,0,0,0,0
1564765257375,-42,-2,-36,0,0,0,0,0
1564765257406.25,-42,4,-37,0,0,0,0,0
1564765257437.5,-40,21,-38,0,0,0,0,0
1564765257468.75,-46,30,-37,0,0,0,0,0
1564765257500,-74,34,-15,0,0,0,0,0
1564765257531.25,-88,18,0,0,0,0,0,0
1564765257562.5,-82,13,-19,0,0,0,0,0
1564765257593.75,-44,27,-64,0,0,0,0,0
1564765257625,-27,28,-67,0,0,0,0,0
1564765257656.25,-24,18,-59,0,0,0,0,0
1564765257687.5,-28,9,-50,0,0,0,0,0
1564765257718.75,-31,1,-42,0,0,0,0,0
1564765257750,-37,1,-43,0,0,0,0,0
1564765257781.25,-56,4,-53,0,0,0,0,0
1564765257812.5,-59,12,-57,0,0,0,0,0
1564765257843.75,-55,16,-54,0,0,0,0,0
1564765257875,-48,21,-44,0,0,0,0,0
1564765257906.25,-47,20,-40,0,0,0,0,0
1564765257937.5,-46,19,-37,0,0,0,0,0
1564765257968.75,-44,18,-38,0,0,0,0,0
1564765258000,-42,17,-37,0,0,0,0,0
1564765258031.25,-43,17,-38,0,0,0,0,0
1564765258062.5,-48,17,-41,0,0,0,0,0
1564765258093.75,-50,17,-42,0,0,0,0,0
1564765258125,-53,19,-42,0,0,0,0,0
1564765258156.25,-56,18,-40,0,0,0,0,0
1564765258187.5,-54,16,-38,0,0,0,0,0
1564765258218.75,-52,11,-32,0,0,0,0,0
1564765258250,-50,9,-29,0,0,0,0,0
1564765258281.25,-48,5,-26,0,0,0,0,0
1564765258312.5,-48,5,-28,0,0,0,0,0
1564765258343.75,-55,8,-35,0,0,0,0,0
1564765258375,-58,12,-38,0,0,0,0,0
1564765258406.25,-66,10,-44,0,0,0,0,0
1564765258437.5,-67,9,-44,0,0,0,0,0
1564765258468.75,-65,17,-36,0,0,0,0,0
1564765258500,-60,23,-28,0,0,0,0,0
1564765258531.25,-54,23,-20,0,0,0,0,0
1564765258562.5,-50,19,-12,0,0,0,0,0
1564765258593.75,-51,18,-10,0,0,0,0,0
1564765258625,-59,20,-12,0,0,0,0,0
1564765258656.25,-63,23,-15,0,0,0,0,0
1564765258687.5,-70,30,-16,0,0,0,0,0
1564765258718.75,-71,31,-17,0,0,0,0,0
1564765258750,-63,24,-5,0,0,0,0,0
1564765258781.25,-60,20,-7,0,0,0,0,0
1564765258812.5,-49,15,0,0,0,0,0,0
1564765258843.75,-48,8,-1,0,0,0,0,0
1564765258875,-47,-2,-3,0,0,0,0,0
1564765258906.25,-69,-23,-33,0,0,0,0,0
1564765258937.5,-83,-30,-51,0,0,0,0,0
1564765258968.75,-86,-34,-61,0,0,0,0,0
1564765259000,-72,-34,-59,0,0,0,0,0
1564765259031.25,-53,-34,-49,0,0,0,0,0
1564765259062.5,-51,-33,-43,0,0,0,0,0
1564765259093.75,-37,-30,-34,0,0,0,0,0
1564765259125,-26,-31,-30,0,0,0,0,0
1564765259156.25,-24,-30,-28,0,0,0,0,0
1564765259187.5,-30,-24,-19,0,0,0,0,0
1564765259218.75,-34,-22,-16,0,0,0,0,0
1564765259250,-42,-21,-8,0,0,0,0,0
1564765259281.25,-46,-22,-2,0,0,0,0,0
1564765259312.5,-47,-29,7,0,0,0,0,0
1564765259343.75,-45,-34,10,0,0,0,0,0
1564765259375,-41,-42,18,0,0,0,0,0
1564765259406.25,-36,-47,20,0,0,0,0,0
1564765259437.5,-43,-61,13,0,0,0,0,0
1564765259468.75,-38,-65,9,0,0,0,0,0
1564765259500,-36,-63,9,0,0,0,0,0
1564765259531.25,-29,-56,11,0,0,0,0,0
1564765259562.5,-32,-53,9,0,0,0,0,0
1564765259593.75,-24,-55,5,0,0,0,0,0
1564765259625,-27,-53,5,0,0,0,0,0
1564765259656.25,-29,-52,8,0,0,0,0,0
1564765259687.5,-29,-55,11,0,0,0,0,0
1564765259718.75,-34,-55,12,0,0,0,0,0
1564765259750,-33,-54,10,0,0,0,0,0
1564765259781.25,-22,-50,11,0,0,0,0,0
1564765259812.5,-14,-52,13,0,0,0,0,0
1564765259843.75,-17,-54,16,0,0,0,0,0
1564765259875,-27,-52,26,0,0,0,0,0
1564765259906.25,-29,-56,28,0,0,0,0,0
1564765259937.5,-30,-63,17,0,0,0,0,0
1564765259968.75,-33,-63,11,0,0,0,0,0
1564765260000,-27,-58,14,0,0,0,0,0
1564765260031.25,-19,-55,20,0,0,0,0,0
1564765260062.5,-14,-56,25,0,0,0,0,0
1564765260093.75,-17,-59,24,0,0,0,0,0
1564765260125,-18,-59,27,0,0,0,0,0
1564765260156.25,-16,-56,28,0,0,0,0,0
1564765260187.5,-17,-55,27,0,0,0,0,0
1564765260218.75,-15,-52,25,0,0,0,0,0
1564765260250,-15,-51,26,0,0,0,0,0
1564765260281.25,-19,-50,26,0,0,0,0,0
1564765260312.5,-17,-52,25,0,0,0,0,0
1564765260343.75,-22,-56,25,0,0,0,0,0
1564765260375,-29,-59,29,0,0,0,0,0
1564765260406.25,-48,-56,25,0,0,0,0,0
1564765260437.5,-45,-38,20,0,0,0,0,0
1564765260468.75,-43,-36,16,0,0,0,0,0
1564765260500,-44,-42,17,0,0,0,0,0
1564765260531.25,-40,-46,23,0,0,0,0,0
1564765260562.5,-39,-49,26,0,0,0,0,0
1564765260593.75,-38,-49,24,0,0,0,0,0
1564765260625,-34,-48,18,0,0,0,0,0
1564765260656.25,-36,-45,17,0,0,0,0,0
1564765260687.5,-39,-44,17,0,0,0,0,0
1564765260718.75,-42,-43,20,0,0,0,0,0
1564765260750,-45,-42,25,0,0,0,0,0
1564765260781.25,-41,-40,25,0,0,0,0,0
1564765260812.5,-38,-39,25,0,0,0,0,0
1564765260843.75,-32,-40,25,0,0,0,0,0
1564765260875,-30,-41,24,0,0,0,0,0
1564765260906.25,-32,-44,21,0,0,0,0,0
1564765260937.5,-34,-44,21,0,0,0,0,0
1564765260968.75,-36,-45,25,0,0,0,0,0
1564765261000,-39,-44,27,0,0,0,0,0
1564765261031.25,-40,-43,25,0,0,0,0,0
1564765261062.5,-40,-43,22,0,0,0,0,0
1564765261093.75,-39,-40,19,0,0,0,0,0
1564765261125,-41,-42,18,0,0,0,0,0
1564765261156.25,-43,-45,19,0,0,0,0,0
1564765261187.5,-44,-47,26,0,0,0,0,0
1564765261218.75,-44,-49,27,0,0,0,0,0
1564765261250,-45,-48,21,0,0,0,0,0
1564765261281.25,-46,-49,17,0,0,0,0,0
1564765261312.5,-55,-52,10,0,0,0,0,0
1564765261343.75,-57,-50,12,0,0,0,0,0
1564765261375,-42,-53,9,0,0,0,0,0
1564765261406.25,-34,-54,9,0,0,0,0,0
1564765261437.5,-27,-54,14,0,0,0,0,0
1564765261468.75,-30,-54,27,0,0,0,0,0
1564765261500,-34,-54,30,0,0,0,0,0
1564765261531.25,-38,-51,32,0,0,0,0,0
1564765261562.5,-41,-49,28,0,0,0,0,0
1564765261593.75,-54,-37,22,0,0,0,0,0
1564765261625,-55,-33,21,0,0,0,0,0
1564765261656.25,-44,-33,22,0,0,0,0,0
1564765261687.5,-39,-35,22,0,0,0,0,0
1564765261718.75,-32,-32,33,0,0,0,0,0
1564765261750,-29,-32,31,0,0,0,0,0
1564765261781.25,-30,-33,28,0,0,0,0,0
1564765261812.5,-33,-36,28,0,0,0,0,0
1564765261843.75,-39,-40,30,0,0,0,0,0
1564765261875,-51,-46,41,0,0,0,0,0
1564765261906.25,-54,-51,45,0,0,0,0,0
1564765261937.5,-56,-58,19,0,0,0,0,0
1564765261968.75,-60,-49,13,0,0,0,0,0
1564765262000,-46,-29,26,0,0,0,0,0
1564765262031.25,-32,-30,34,0,0,0,0,0
1564765262062.5,-30,-52,36,0,0,0,0,0
1564765262093.75,-33,-56,35,0,0,0,0,0
1564765262125,-31,-43,31,0,0,0,0,0
1564765262156.25,-27,-20,29,0,0,0,0,0
1564765262187.5,-26,-17,32,0,0,0,0,0
1564765262218.75,-24,-23,31,0,0,0,0,0
1564765262250,-24,-29,26,0,0,0,0,0
1564765262281.25,-30,-43,21,0,0,0,0,0
1564765262312.5,-29,-48,23,0,0,0,0,0
1564765262343.75,-22,-47,38,0,0,0,0,0
1564765262375,-18,-46,52,0,0,0,0,0
1564765262406.25,-15,-56,48,0,0,0,0,0
1564765262437.5,-14,-70,39,0,0,0,0,0
1564765262468.75,-14,-68,31,0,0,0,0,0
1564765262500,-25,-63,15,0,0,0,0,0
1564765262531.25,-26,-57,15,0,0,0,0,0
1564765262562.5,-21,-42,31,0,0,0,0,0
1564765262593.75,-17,-41,32,0,0,0,0,0
1564765262625,-30,-46,14,0,0,0,0,0
1564765262656.25,-33,-49,10,0,0,0,0,0
1564765262687.5,-35,-54,17,0,0,0,0,0
1564765262718.75,-33,-56,20,0,0,0,0,0
1564765262750,-22,-56,20,0,0,0,0,0
1564765262781.25,-21,-50,18,0,0,0,0,0
1564765262812.5,-23,-49,20,0,0,0,0,0
1564765262843.75,-23,-53,36,0,0,0,0,0
1564765262875,-30,-60,33,0,0,0,0,0
1564765262906.25,-52,-67,-4,0,0,0,0,0
1564765262937.5,-53,-61,-8,0,0,0,0,0
1564765262968.75,-44,-36,26,0,0,0,0,0
1564765263000,-35,-37,37,0,0,0,0,0
1564765263031.25,-41,-46,28,0,0,0,0,0
1564765263062.5,-33,-61,11,0,0,0,0,0
1564765263093.75,-23,-60,6,0,0,0,0,0
1564765263125,-12,-46,8,0,0,0,0,0
1564765263156.25,-12,-40,12,0,0,0,0,0
1564765263187.5,-22,-42,13,0,0,0,0,0
1564765263218.75,-31,-47,12,0,0,0,0,0
1564765263250,-39,-49,22,0,0,0,0,0
1564765263281.25,-45,-49,22,0,0,0,0,0
1564765263312.5,-47,-54,14,0,0,0,0,0
1564765263343.75,-40,-59,11,0,0,0,0,0
1564765263375,-38,-62,17,0,0,0,0,0
1564765263406.25,-32,-60,20,0,0,0,0,0
1564765263437.5,-17,-65,19,0,0,0,0,0
1564765263468.75,0,-65,28,0,0,0,0,0
1564765263500,1,-66,14,0,0,0,0,0
1564765263531.25,-22,-62,-13,0,0,0,0,0
1564765263562.5,-15,-58,-4,0,0,0,0,0
1564765263593.75,-19,-56,23,0,0,0,0,0
1564765263625,-31,-62,27,0,0,0,0,0
1564765263656.25,-39,-59,24,0,0,0,0,0
1564765263687.5,-35,-55,21,0,0,0,0,0
1564765263718.75,-25,-51,14,0,0,0,0,0
1564765263750,-20,-50,16,0,0,0,0,0
1564765263781.25,-25,-51,19,0,0,0,0,0
1564765263812.5,-37,-55,17,0,0,0,0,0
1564765263843.75,-35,-58,15,0,0,0,0,0
1564765263875,-27,-64,18,0,0,0,0,0
1564765263906.25,-27,-63,19,0,0,0,0,0
1564765263937.5,-29,-63,15,0,0,0,0,0
1564765263968.75,-18,-64,12,0,0,0,0,0
1564765264000,-18,-66,-9,0,0,0,0,0
1564765264031.25,-19,-64,-6,0,0,0,0,0
1564765264062.5,-22,-59,15,0,0,0,0,0
1564765264093.75,-28,-64,20,0,0,0,0,0
1564765264125,-30,-63,17,0,0,0,0,0
1564765264156.25,-18,-54,16,0,0,0,0,0
1564765264187.5,-12,-51,15,0,0,0,0,0
1564765264218.75,-10,-49,9,0,0,0,0,0
1564765264250,-7,-49,10,0,0,0,0,0
1564765264281.25,1,-47,22,0,0,0,0,0
1564765264312.5,2,-51,20,0,0,0,0,0
1564765264343.75,-11,-51,13,0,0,0,0,0
1564765264375,-21,-50,15,0,0,0,0,0
1564765264406.25,-24,-51,43,0,0,0,0,0
1564765264437.5,-15,-65,34,0,0,0,0,0
1564765264468.75,-14,-70,33,0,0,0,0,0
1564765264500,-12,-65,32,0,0,0,0,0
1564765264531.25,-12,-65,27,0,0,0,0,0
1564765264562.5,-20,-65,26,0,0,0,0,0
1564765264593.75,-26,-60,26,0,0,0,0,0
1564765264625,-30,-45,24,0,0,0,0,0
1564765264656.25,-24,-31,30,0,0,0,0,0
1564765264687.5,-6,-15,21,0,0,0,0,0
1564765264718.75,-4,-17,9,0,0,0,0,0
1564765264750,-11,-15,3,0,0,0,0,0
1564765264781.25,-9,-5,3,0,0,0,0,0
1564765264812.5,-6,3,8,0,0,0,0,0
1564765264843.75,-15,27,8,0,0,0,0,0
1564765264875,-21,41,-6,0,0,0,0,0
1564765264906.25,-39,84,-24,0,0,0,0,0
1564765264937.5,-72,121,-32,0,0,0,0,0
1564765264968.75,-95,127,-38,0,0,0,0,0
1564765265000,-128,127,-37,0,0,0,0,0
1564765265031.25,-111,112,-30,0,0,0,0,0
1564765265062.5,-63,73,-7,0,0,0,0,0
1564765265093.75,-54,57,-6,0,0,0,0,0
1564765265125,-44,38,-5,0,0,0,0,0
1564765265156.25,-40,30,-4,0,0,0,0,0
1564765265187.5,-41,18,-8,0,0,0,0,0
1564765265218.75,-44,16,-7,0,0,0,0,0
1564765265250,-53,22,-6,0,0,0,0,0
1564765265281.25,-59,25,-6,0,0,0,0,0
1564765265312.5,-60,40,-1,0,0,0,0,0
1564765265343.75,-56,49,3,0,0,0,0,0
1564765265375,-49,62,3,0,0,0,0,0
1564765265406.25,-50,76,-4,0,0,0,0,0
1564765265437.5,-54,83,-6,0,0,0,0,0
1564765265468.75,-52,88,-12,0,0,0,0,0
1564765265500,-48,90,-15,0,0,0,0,0
1564765265531.25,-37,82,-17,0,0,0,0,0
1564765265562.5,-33,78,-15,0,0,0,0,0
1564765265593.75,-26,68,-12,0,0,0,0,0
1564765265625,-20,63,-8,0,0,0,0,0
1564765265656.25,-14,51,-9,0,0,0,0,0
1564765265687.5,-13,48,-20,0,0,0,0,0
1564765265718.75,-18,56,-61,0,0,0,0,0
1564765265750,0,47,-68,0,0,0,0,0
1564765265781.25,6,56,-65,0,0,0,0,0
1564765265812.5,-13,61,-49,0,0,0,0,0
1564765265843.75,-22,68,-41,0,0,0,0,0
1564765265875,-39,127,30,0,0,0,0,0
1564765265906.25,95,127,127,0,0,0,0,0
1564765265937.5,1,81,25,0,0,0,0,0
1564765265968.75,-84,55,-27,0,0,0,0,0
1564765266000,-69,20,-51,0,0,0,0,0
1564765266031.25,-55,3,-63,0,0,0,0,0
1564765266062.5,0,10,-45,0,0,0,0,0
1564765266093.75,4,44,-11,0,0,0,0,0
1564765266125,14,56,8,0,0,0,0,0
1564765266156.25,-38,73,0,0,0,0,0,0
1564765266187.5,-67,70,-12,0,0,0,0,0
1564765266218.75,-71,57,-10,0,0,0,0,0
1564765266250,-79,48,-25,0,0,0,0,0
1564765266281.25,-21,31,-13,0,0,0,0,0
1564765266312.5,-111,19,-50,0,0,0,0,0
1564765266343.75,-36,16,-16,0,0,0,0,0
1564765266375,-11,24,-14,0,0,0,0,0
1564765266406.25,-38,28,-19,0,0,0,0,0
1564765266437.5,-92,26,-27,0,0,0,0,0
1564765266468.75,-92,14,-19,0,0,0,0,0
1564765266500,-42,1,12,0,0,0,0,0
1564765266531.25,-47,-2,16,0,0,0,0,0
1564765266562.5,-54,-5,-7,0,0,0,0,0
1564765266593.75,-58,-6,-25,0,0,0,0,0
1564765266625,-82,-2,-65,0,0,0,0,0
1564765266656.25,-71,1,-62,0,0,0,0,0
1564765266687.5,-48,8,-42,0,0,0,0,0
1564765266718.75,11,2,-23,0,0,0,0,0
1564765266750,-75,-4,-51,0,0,0,0,0
1564765266781.25,-61,-6,-49,0,0,0,0,0
1564765266812.5,-40,-6,-48,0,0,0,0,0
1564765266843.75,-25,-7,-53,0,0,0,0,0
1564765266875,-32,-7,-58,0,0,0,0,0
1564765266906.25,-34,-7,-58,0,0,0,0,0
1564765266937.5,-32,-6,-54,0,0,0,0,0
1564765266968.75,-37,0,-52,0,0,0,0,0
1564765267000,-44,5,-47,0,0,0,0,0
1564765267031.25,-47,6,-44,0,0,0,0,0
1564765267062.5,-50,6,-38,0,0,0,0,0
1564765267093.75,-54,4,-34,0,0,0,0,0
1564765267125,-52,0,-35,0,0,0,0,0
1564765267156.25,-54,-5,-36,0,0,0,0,0
1564765267187.5,-54,-10,-32,0,0,0,0,0
1564765267218.75,-51,-13,-33,0,0,0,0,0
1564765267250,-47,-16,-33,0,0,0,0,0
1564765267281.25,-46,-16,-33,0,0,0,0,0
1564765267312.5,-41,-15,-32,0,0,0,0,0
1564765267343.75,-40,-14,-33,0,0,0,0,0
1564765267375,-40,-13,-35,0,0,0,0,0
1564765267406.25,-40,-13,-41,0,0,0,0,0
1564765267437.5,-40,-13,-44,0,0,0,0,0
1564765267468.75,-47,-15,-51,0,0,0,0,0
1564765267500,-48,-17,-49,0,0,0,0,0
1564765267531.25,-47,-19,-38,0,0,0,0,0
1564765267562.5,-43,-20,-34,0,0,0,0,0
1564765267593.75,-39,-25,-37,0,0,0,0,0
1564765267625,-40,-27,-44,0,0,0,0,0
1564765267656.25,-41,-23,-53,0,0,0,0,0
1564765267687.5,-42,-12,-63,0,0,0,0,0
1564765267718.75,-42,-5,-65,0,0,0,0,0
1564765267750,-45,1,-61,0,0,0,0,0
1564765267781.25,-50,0,-56,0,0,0,0,0
1564765267812.5,-54,-6,-37,0,0,0,0,0
1564765267843.75,-50,-10,-30,0,0,0,0,0
1564765267875,-31,-15,-28,0,0,0,0,0
1564765267906.25,-37,-10,-21,0,0,0,0,0
1564765267937.5,-62,-20,-29,0,0,0,0,0
1564765267968.75,-88,-21,-14,0,0,0,0,0
1564765268000,-56,-7,24,0,0,0,0,0
1564765268031.25,-47,10,36,0,0,0,0,0
1564765268062.5,-52,9,30,0,0,0,0,0
1564765268093.75,-63,3,17,0,0,0,0,0
1564765268125,-62,2,16,0,0,0,0,0
1564765268156.25,-63,0,10,0,0,0,0,0
1564765268187.5,-63,3,11,0,0,0,0,0
1564765268218.75,-63,10,18,0,0,0,0,0
1564765268250,-62,11,21,0,0,0,0,0
1564765268281.25,-62,12,26,0,0,0,0,0
1564765268312.5,-59,12,31,0,0,0,0,0
1564765268343.75,-56,14,42,0,0,0,0,0
1564765268375,-79,14,29,0,0,0,0,0
1564765268406.25,-94,8,24,0,0,0,0,0
1564765268437.5,-18,10,77,0,0,0,0,0
1564765268468.75,-4,20,92,0,0,0,0,0
1564765268500,-42,9,67,0,0,0,0,0
1564765268531.25,-35,4,63,0,0,0,0,0
1564765268562.5,-28,3,50,0,0,0,0,0
1564765268593.75,-28,-2,45,0,0,0,0,0
1564765268625,-18,-7,37,0,0,0,0,0
1564765268656.25,-16,-8,39,0,0,0,0,0
1564765268687.5,-41,-12,41,0,0,0,0,0
1564765268718.75,-54,-12,38,0,0,0,0,0
1564765268750,-60,-9,39,0,0,0,0,0
1564765268781.25,-38,-1,58,0,0,0,0,0
1564765268812.5,-25,-1,62,0,0,0,0,0
1564765268843.75,-30,-14,65,0,0,0,0,0
1564765268875,-32,-15,60,0,0,0,0,0
1564765268906.25,-25,-16,55,0,0,0,0,0
1564765268937.5,-25,-17,50,0,0,0,0,0
1564765268968.75,-19,-20,47,0,0,0,0,0
1564765269000,-27,-20,51,0,0,0,0,0
1564765269031.25,-26,-19,51,0,0,0,0,0
1564765269062.5,-22,-18,53,0,0,0,0,0
1564765269093.75,-23,-17,55,0,0,0,0,0
1564765269125,-24,-18,55,0,0,0,0,0
1564765269156.25,-24,-17,50,0,0,0,0,0
1564765269187.5,-29,-15,47,0,0,0,0,0
1564765269218.75,-26,-16,49,0,0,0,0,0
1564765269250,-28,-21,53,0,0,0,0,0
1564765269281.25,-37,-25,52,0,0,0,0,0
1564765269312.5,-55,-32,38,0,0,0,0,0
1564765269343.75,-63,-32,14,0,0,0,0,0
1564765269375,-56,-31,7,0,0,0,0,0
1564765269406.25,-49,-31,-1,0,0,0,0,0
1564765269437.5,-49,-32,-4,0,0,0,0,0
1564765269468.75,-45,-39,-8,0,0,0,0,0
1564765269500,-42,-50,-11,0,0,0,0,0
1564765269531.25,-37,-61,-12,0,0,0,0,0
1564765269562.5,-32,-65,-13,0,0,0,0,0
1564765269593.75,-46,-68,-33,0,0,0,0,0
1564765269625,-50,-64,-26,0,0,0,0,0
1564765269656.25,-54,-48,-4,0,0,0,0,0
1564765269687.5,-20,-47,-37,0,0,0,0,0
1564765269718.75,11,-62,-2,0,0,0,0,0
1564765269750,45,1,96,0,0,0,0,0
1564765269781.25,46,6,104,0,0,0,0,0
1564765269812.5,-45,-2,102,0,0,0,0,0
1564765269843.75,-49,-21,81,0,0,0,0,0
1564765269875,-30,-41,43,0,0,0,0,0
1564765269906.25,-36,-40,45,0,0,0,0,0
1564765269937.5,-21,-30,38,0,0,0,0,0
1564765269968.75,-22,-26,40,0,0,0,0,0
1564765270000,-26,-32,37,0,0,0,0,0
1564765270031.25,-37,-41,36,0,0,0,0,0
1564765270062.5,-38,-39,41,0,0,0,0,0
1564765270093.75,-40,-22,58,0,0,0,0,0
1564765270125,-40,-19,60,0,0,0,0,0
1564765270156.25,-31,-19,54,0,0,0,0,0
1564765270187.5,-26,-21,51,0,0,0,0,0
1564765270218.75,-26,-23,48,0,0,0,0,0
1564765270250,-27,-27,48,0,0,0,0,0
1564765270281.25,-31,-33,43,0,0,0,0,0
1564765270312.5,-36,-39,36,0,0,0,0,0
1564765270343.75,-37,-37,36,0,0,0,0,0
1564765270375,-33,-31,37,0,0,0,0,0
1564765270406.25,-29,-27,38,0,0,0,0,0
1564765270437.5,-19,-20,34,0,0,0,0,0
1564765270468.75,-14,-18,30,0,0,0,0,0
1564765270500,-23,-14,29,0,0,0,0,0
1564765270531.25,-30,-11,31,0,0,0,0,0
1564765270562.5,-42,-7,41,0,0,0,0,0
1564765270593.75,-42,-5,49,0,0,0,0,0
1564765270625,-37,-1,53,0,0,0,0,0
1564765270656.25,-22,-3,55,0,0,0,0,0
1564765270687.5,-27,2,64,0,0,0,0,0
1564765270718.75,-70,20,65,0,0,0,0,0
1564765270750,-60,24,58,0,0,0,0,0
1564765270781.25,-42,33,52,0,0,0,0,0
1564765270812.5,-35,39,54,0,0,0,0,0
1564765270843.75,-29,39,49,0,0,0,0,0
1564765270875,-36,42,47,0,0,0,0,0
1564765270906.25,-37,40,30,0,0,0,0,0
1564765270937.5,-39,42,25,0,0,0,0,0
1564765270968.75,-26,52,36,0,0,0,0,0
1564765271000,-13,52,64,0,0,0,0,0
1564765271031.25,4,54,83,0,0,0,0,0
1564765271062.5,-42,42,40,0,0,0,0,0
1564765271093.75,-39,43,36,0,0,0,0,0
1564765271125,-38,49,34,0,0,0,0,0
1564765271156.25,-29,48,38,0,0,0,0,0
1564765271187.5,-18,48,46,0,0,0,0,0
1564765271218.75,-22,47,49,0,0,0,0,0
1564765271250,-30,47,47,0,0,0,0,0
1564765271281.25,-31,45,44,0,0,0,0,0
1564765271312.5,-26,42,35,0,0,0,0,0
1564765271343.75,-26,44,33,0,0,0,0,0
1564765271375,-25,46,33,0,0,0,0,0
1564765271406.25,-20,48,31,0,0,0,0,0
1564765271437.5,-21,50,31,0,0,0,0,0
1564765271468.75,-29,53,33,0,0,0,0,0
1564765271500,-34,55,30,0,0,0,0,0
1564765271531.25,-31,60,23,0,0,0,0,0
1564765271562.5,-33,57,25,0,0,0,0,0
1564765271593.75,-35,48,24,0,0,0,0,0
1564765271625,-26,42,30,0,0,0,0,0
1564765271656.25,-24,44,37,0,0,0,0,0
1564765271687.5,-30,48,9,0,0,0,0,0
1564765271718.75,-73,45,-20,0,0,0,0,0
1564765271750,-80,43,-23,0,0,0,0,0
1564765271781.25,-61,37,-24,0,0,0,0,0
1564765271812.5,-46,32,-11,0,0,0,0,0
1564765271843.75,-43,29,-11,0,0,0,0,0
1564765271875,-37,29,-15,0,0,0,0,0
1564765271906.25,-33,29,-18,0,0,0,0,0
1564765271937.5,-35,27,-29,0,0,0,0,0
1564765271968.75,-40,22,-37,0,0,0,0,0
1564765272000,-38,20,-39,0,0,0,0,0
1564765272031.25,-36,21,-42,0,0,0,0,0
1564765272062.5,-42,23,-40,0,0,0,0,0
1564765272093.75,-54,28,-36,0,0,0,0,0
1564765272125,-60,33,-35,0,0,0,0,0
1564765272156.25,-52,46,-32,0,0,0,0,0
1564765272187.5,-43,50,-56,0,0,0,0,0
1564765272218.75,-28,46,-86,0,0,0,0,0
1564765272250,-34,35,-74,0,0,0,0,0
1564765272281.25,-32,13,-25,0,0,0,0,0
1564765272312.5,-24,5,-21,0,0,0,0,0
1564765272343.75,-18,4,-35,0,0,0,0,0
1564765272375,-12,7,-61,0,0,0,0,0
1564765272406.25,-18,9,-66,0,0,0,0,0
1564765272437.5,-32,13,-62,0,0,0,0,0
1564765272468.75,-36,16,-58,0,0,0,0,0
1564765272500,-33,20,-59,0,0,0,0,0
1564765272531.25,-26,20,-59,0,0,0,0,0
1564765272562.5,-22,19,-54,0,0,0,0,0
1564765272593.75,-21,17,-51,0,0,0,0,0
1564765272625,-29,12,-54,0,0,0,0,0
1564765272656.25,-33,7,-51,0,0,0,0,0
1564765272687.5,-30,7,-51,0,0,0,0,0
1564765272718.75,-25,17,-61,0,0,0,0,0
1564765272750,-28,21,-63,0,0,0,0,0
1564765272781.25,-36,21,-57,0,0,0,0,0
1564765272812.5,-38,22,-52,0,0,0,0,0
1564765272843.75,-37,28,-41,0,0,0,0,0
1564765272875,-43,29,-46,0,0,0,0,0
1564765272906.25,-60,27,-50,0,0,0,0,0
1564765272937.5,-55,20,-41,0,0,0,0,0
1564765272968.75,-48,17,-33,0,0,0,0,0
1564765273000,-41,15,-23,0,0,0,0,0
1564765273031.25,-40,13,-18,0,0,0,0,0
1564765273062.5,-52,13,-1,0,0,0,0,0
1564765273093.75,-68,15,8,0,0,0,0,0
1564765273125,-62,39,21,0,0,0,0,0
1564765273156.25,-35,46,15,0,0,0,0,0
1564765273187.5,37,47,32,0,0,0,0,0
1564765273218.75,20,54,38,0,0,0,0,0
1564765273250,-39,75,32,0,0,0,0,0
1564765273281.25,-43,86,56,0,0,0,0,0
1564765273312.5,-29,95,68,0,0,0,0,0
1564765273343.75,-58,65,36,0,0,0,0,0
1564765273375,-41,57,23,0,0,0,0,0
1564765273406.25,65,48,12,0,0,0,0,0
1564765273437.5,108,68,13,0,0,0,0,0
1564765273468.75,-65,67,31,0,0,0,0,0
1564765273500,-67,76,43,0,0,0,0,0
1564765273531.25,-36,59,51,0,0,0,0,0
1564765273562.5,-31,51,46,0,0,0,0,0
1564765273593.75,-27,36,34,0,0,0,0,0
1564765273625,-18,30,23,0,0,0,0,0
1564765273656.25,-24,31,20,0,0,0,0,0
1564765273687.5,-35,35,16,0,0,0,0,0
1564765273718.75,-32,37,18,0,0,0,0,0
1564765273750,-20,47,24,0,0,0,0,0
1564765273781.25,-14,52,29,0,0,0,0,0
1564765273812.5,-19,55,35,0,0,0,0,0
1564765273843.75,-25,51,37,0,0,0,0,0
1564765273875,-27,40,38,0,0,0,0,0
1564765273906.25,-27,30,39,0,0,0,0,0
1564765273937.5,-30,26,37,0,0,0,0,0
1564765273968.75,-34,36,40,0,0,0,0,0
1564765274000,-37,47,41,0,0,0,0,0
1564765274031.25,-29,55,31,0,0,0,0,0
1564765274062.5,-26,51,26,0,0,0,0,0
1564765274093.75,-19,46,30,0,0,0,0,0
1564765274125,-19,47,39,0,0,0,0,0
1564765274156.25,-38,52,53,0,0,0,0,0
1564765274187.5,-43,55,48,0,0,0,0,0
1564765274218.75,-25,56,37,0,0,0,0,0
1564765274250,-14,43,30,0,0,0,0,0
1564765274281.25,-15,37,32,0,0,0,0,0
1564765274312.5,-25,26,40,0,0,0,0,0
1564765274343.75,-32,23,44,0,0,0,0,0
1564765274375,-20,34,47,0,0,0,0,0
1564765274406.25,-11,43,51,0,0,0,0,0
1564765274437.5,-23,47,54,0,0,0,0,0
1564765274468.75,-32,47,53,0,0,0,0,0
1564765274500,-27,45,48,0,0,0,0,0
1564765274531.25,-18,45,45,0,0,0,0,0
1564765274562.5,-6,42,48,0,0,0,0,0
1564765274593.75,-28,35,52,0,0,0,0,0
1564765274625,-53,35,59,0,0,0,0,0
1564765274656.25,-46,25,44,0,0,0,0,0
1564765274687.5,-46,20,35,0,0,0,0,0
1564765274718.75,-47,20,33,0,0,0,0,0
1564765274750,-37,26,41,0,0,0,0,0
1564765274781.25,-25,37,61,0,0,0,0,0
1564765274812.5,-30,36,62,0,0,0,0,0
1564765274843.75,-26,28,53,0,0,0,0,0
1564765274875,-19,26,55,0,0,0,0,0
1564765274906.25,-2,23,69,0,0,0,0,0
1564765274937.5,8,20,82,0,0,0,0,0
1564765274968.75,6,17,85,0,0,0,0,0
1564765275000,-1,34,57,0,0,0,0,0
1564765275031.25,-53,48,53,0,0,0,0,0
1564765275062.5,-112,40,34,0,0,0,0,0
1564765275093.75,-120,34,12,0,0,0,0,0
1564765275125,-73,25,-3,0,0,0,0,0
1564765275156.25,-40,42,22,0,0,0,0,0
1564765275187.5,-22,52,35,0,0,0,0,0
1564765275218.75,-17,46,20,0,0,0,0,0
1564765275250,-8,46,2,0,0,0,0,0
1564765275281.25,4,42,16,0,0,0,0,0
1564765275312.5,0,39,19,0,0,0,0,0
1564765275343.75,-29,44,38,0,0,0,0,0
1564765275375,-39,47,39,0,0,0,0,0
1564765275406.25,-45,37,39,0,0,0,0,0
1564765275437.5,-43,31,37,0,0,0,0,0
1564765275468.75,-44,28,35,0,0,0,0,0
1564765275500,-43,30,38,0,0,0,0,0
1564765275531.25,-52,41,38,0,0,0,0,0
1564765275562.5,-64,56,39,0,0,0,0,0
1564765275593.75,-63,61,41,0,0,0,0,0
1564765275625,-57,62,47,0,0,0,0,0
1564765275656.25,-49,57,46,0,0,0,0,0
1564765275687.5,-37,48,39,0,0,0,0,0
1564765275718.75,-33,46,36,0,0,0,0,0
1564765275750,-39,43,31,0,0,0,0,0
1564765275781.25,-41,39,28,0,0,0,0,0
1564765275812.5,-46,28,23,0,0,0,0,0
1564765275843.75,-50,25,22,0,0,0,0,0
1564765275875,-61,27,22,0,0,0,0,0
1564765275906.25,-63,26,20,0,0,0,0,0
1564765275937.5,-57,21,18,0,0,0,0,0
1564765275968.75,-45,8,14,0,0,0,0,0
