Timestamp,ACC_X,ACC_Y,ACC_Z,Note,AGG,ED,SIB,Condition
1561460797000,0,0,0,0,0,0,0,0
1561460797031.25,0,0,0,0,0,0,0,0
1561460797062.5,0,0,0,0,0,0,0,0
1561460797093.75,0,0,0,0,0,0,0,0
1561460797125,0,0,0,0,0,0,0,0
1561460797156.25,0,0,0,0,0,0,0,0
1561460797187.5,0,0,0,0,0,0,0,0
1561460797218.75,0,0,0,0,0,0,0,0
1561460797250,0,0,0,1,0,0,0,0
1561460797281.25,0,0,0,1,0,0,0,0
1561460797312.5,0,0,0,1,0,0,0,0
1561460797343.75,0,0,0,1,0,0,0,0
1561460797375,0,0,0,1,0,0,0,0
1561460797406.25,0,0,0,1,0,0,0,0
1561460797437.5,0,0,0,1,0,0,0,0
1561460797468.75,0,0,0,1,0,0,0,0
1561460797500,0,0,0,1,0,0,0,0
1561460797531.25,0,0,0,1,0,0,0,0
1561460797562.5,0,0,0,1,0,0,0,0
1561460797593.75,0,0,0,1,0,0,0,0
1561460797625,0,0,0,1,0,0,0,0
1561460797656.25,0,0,0,1,0,0,0,0
1561460797687.5,0,0,0,1,0,0,0,0
1561460797718.75,0,0,0,1,0,0,0,0
1561460797750,0,0,0,1,0,0,0,0
1561460797781.25,0,0,0,1,0,0,0,0
1561460797812.5,0,0,0,1,0,0,0,0
1561460797843.75,0,0,0,1,0,0,0,0
1561460797875,0,0,0,0,0,0,0,0
1561460797906.25,0,0,0,0,0,0,0,0
1561460797937.5,0,0,0,0,0,0,0,0
1561460797968.75,0,0,0,0,0,0,0,0
1561460798000,0,0,0,0,0,0,0,0
1561460798031.25,0,0,0,0,0,0,0,0
1561460798062.5,0,0,0,0,0,0,0,0
1561460798093.75,0,0,0,0,0,0,0,0
1561460798125,0,0,0,0,0,0,0,0
1561460798156.25,0,0,0,0,0,0,0,0
1561460798187.5,0,0,0,0,0,0,0,0
1561460798218.75,0,0,0,0,0,0,0,0
1561460798250,0,0,0,0,0,0,0,0
1561460798281.25,0,0,0,0,0,0,0,0
1561460798312.5,0,0,0,0,0,0,0,0
1561460798343.75,0,0,0,0,0,0,0,0
1561460798375,0,0,0,0,0,0,0,0
1561460798406.25,0,0,0,0,0,0,0,0
1561460798437.5,0,0,0,0,0,0,0,0
1561460798468.75,0,0,0,0,0,0,0,0
1561460798500,0,0,0,0,0,0,0,0
1561460798531.25,0,0,0,0,0,0,0,0
1561460798562.5,0,0,0,0,0,0,0,0
1561460798593.75,0,0,0,0,0,0,0,0
1561460798625,0,0,0,0,0,0,0,0
1561460798656.25,0,0,0,0,0,0,0,0
1561460798687.5,0,0,0,0,0,0,0,0
1561460798718.75,0,0,0,0,0,0,0,0
1561460798750,0,0,0,0,0,0,0,0
1561460798781.25,0,0,0,0,0,0,0,0
1561460798812.5,0,0,0,0,0,0,0,0
1561460798843.75,0,0,0,0,0,0,0,0
1561460798875,0,0,0,0,0,0,0,0
1561460798906.25,0,0,0,0,0,0,0,0
1561460798937.5,0,0,0,0,0,0,0,0
1561460798968.75,0,0,0,0,0,0,0,0
1561460799000,0,0,0,0,0,0,0,0
1561460799031.25,0,0,0,0,0,0,0,0
1561460799062.5,0,0,0,0,0,0,0,0
1561460799093.75,0,0,0,0,0,0,0,0
1561460799125,0,0,0,0,0,0,0,0
1561460799156.25,0,0,0,0,0,0,0,0
1561460799187.5,0,0,0,0,0,0,0,0
1561460799218.75,0,0,0,0,0,0,0,0
1561460799250,0,0,0,0,0,0,0,0
1561460799281.25,0,0,0,0,0,0,0,0
1561460799312.5,0,0,0,0,0,0,0,0
1561460799343.75,0,0,0,0,0,0,0,0
1561460799375,0,0,0,0,0,0,0,0
1561460799406.25,0,0,0,0,0,0,0,0
1561460799437.5,0,0,0,0,0,0,0,0
1561460799468.75,0,0,0,0,0,0,0,0
1561460799500,0,0,0,0,0,0,0,0
1561460799531.25,0,0,0,0,0,0,0,0
1561460799562.5,0,0,0,0,0,0,0,0
1561460799593.75,0,0,0,0,0,0,0,0
1561460799625,0,0,0,0,0,0,0,0
1561460799656.25,0,0,0,0,0,0,0,0
1561460799687.5,0,0,0,0,0,0,0,0
1561460799718.75,0,0,0,0,0,0,0,0
1561460799750,0,0,0,0,0,0,0,0
1561460799781.25,0,0,0,0,0,0,0,0
1561460799812.5,0,0,0,0,0,0,0,0
1561460799843.75,0,0,0,0,0,0,0,0
1561460799875,0,0,0,0,0,0,0,0
1561460799906.25,0,0,0,0,0,0,0,0
1561460799937.5,0,0,0,0,0,0,0,0
1561460799968.75,0,0,0,0,0,0,0,0
1561460800000,0,0,0,0,0,0,0,0
1561460800031.25,0,0,0,0,0,0,0,0
1561460800062.5,0,0,0,0,0,0,0,0
1561460800093.75,0,0,0,0,0,0,0,0
1561460800125,0,0,0,0,0,0,0,0
1561460800156.25,0,0,0,0,0,0,0,0
1561460800187.5,0,0,0,0,0,0,0,0
1561460800218.75,0,0,0,0,0,0,0,0
1561460800250,0,0,0,0,0,0,0,0
1561460800281.25,0,0,0,0,0,0,0,0
1561460800312.5,0,0,0,0,0,0,0,0
1561460800343.75,0,0,0,0,0,0,0,0
1561460800375,0,0,0,0,0,0,0,0
1561460800406.25,0,0,0,0,0,0,0,0
1561460800437.5,0,0,0,0,0,0,0,0
1561460800468.75,0,0,0,0,0,0,0,0
1561460800500,0,0,0,0,0,0,0,0
1561460800531.25,0,0,0,0,0,0,0,0
1561460800562.5,0,0,0,0,0,0,0,0
1561460800593.75,0,0,0,0,0,0,0,0
1561460800625,0,0,0,0,0,0,0,0
1561460800656.25,0,0,0,0,0,0,0,0
1561460800687.5,0,0,0,0,0,0,0,0
1561460800718.75,0,0,0,0,0,0,0,0
1561460800750,0,0,0,0,0,0,0,0
1561460800781.25,0,0,0,0,0,0,0,0
1561460800812.5,0,0,0,0,0,0,0,0
1561460800843.75,0,0,0,0,0,0,0,0
1561460800875,0,0,0,0,0,0,0,0
1561460800906.25,0,0,0,0,0,0,0,0
1561460800937.5,0,0,0,0,0,0,0,0
1561460800968.75,0,0,0,0,0,0,0,0
1561460801000,0,17,77,0,0,0,0,0
1561460801031.25,-16,16,67,0,0,0,0,0
1561460801062.5,-12,16,63,0,0,0,0,0
1561460801093.75,-31,10,39,0,0,0,0,0
1561460801125,15,7,50,0,0,0,0,0
1561460801156.25,5,8,48,0,0,0,0,0
1561460801187.5,-18,13,49,0,0,0,0,0
1561460801218.75,1,17,62,0,0,0,0,0
1561460801250,-14,25,58,0,0,0,0,0
1561460801281.25,-30,23,58,0,0,0,0,0
1561460801312.5,-4,18,60,0,0,0,0,0
1561460801343.75,-19,24,57,0,0,0,0,0
1561460801375,-20,17,52,0,0,0,0,0
1561460801406.25,-23,16,50,0,0,0,0,0
1561460801437.5,-14,16,60,0,0,0,0,0
1561460801468.75,-14,15,56,0,0,0,0,0
1561460801500,-17,16,55,0,0,0,0,0
1561460801531.25,-21,17,56,0,0,0,0,0
1561460801562.5,-22,16,53,0,0,0,0,0
1561460801593.75,-16,21,58,0,0,0,0,0
1561460801625,-20,21,58,0,0,0,0,0
1561460801656.25,-12,18,58,0,0,0,0,0
1561460801687.5,-12,17,62,0,0,0,0,0
1561460801718.75,-22,19,60,0,0,0,0,0
1561460801750,-18,18,58,0,0,0,0,0
1561460801781.25,-9,16,62,0,0,0,0,0
1561460801812.5,-15,18,59,0,0,0,0,0
1561460801843.75,-14,19,56,0,0,0,0,0
1561460801875,-11,20,62,0,0,0,0,0
1561460801906.25,-9,18,58,0,0,0,0,0
1561460801937.5,-3,17,58,0,0,0,0,0
1561460801968.75,-2,16,65,0,0,0,0,0
1561460802000,-8,16,62,0,0,0,0,0
1561460802031.25,-13,17,63,0,0,0,0,0
1561460802062.5,-9,17,65,0,0,0,0,0
1561460802093.75,-8,16,63,0,0,0,0,0
1561460802125,-5,15,65,0,0,0,0,0
1561460802156.25,-6,16,67,0,0,0,0,0
1561460802187.5,-5,16,60,0,0,0,0,0
1561460802218.75,-2,15,62,0,0,0,0,0
1561460802250,-2,16,62,0,0,0,0,0
1561460802281.25,-6,15,61,0,0,0,0,0
1561460802312.5,-10,17,63,0,0,0,0,0
1561460802343.75,-2,16,59,0,0,0,0,0
1561460802375,-3,13,57,0,0,0,0,0
1561460802406.25,-8,14,63,0,0,0,0,0
1561460802437.5,-7,14,62,0,0,0,0,0
1561460802468.75,-7,11,60,0,0,0,0,0
1561460802500,-14,12,59,0,0,0,0,0
1561460802531.25,-7,12,64,0,0,0,0,0
1561460802562.5,-2,10,62,0,0,0,0,0
1561460802593.75,-9,9,61,0,0,0,0,0
1561460802625,-11,11,62,0,0,0,0,0
1561460802656.25,-2,8,61,0,0,0,0,0
1561460802687.5,-4,6,61,0,0,0,0,0
1561460802718.75,-15,10,60,0,0,0,0,0
1561460802750,-10,8,58,0,0,0,0,0
1561460802781.25,-9,6,62,0,0,0,0,0
1561460802812.5,-17,7,61,0,0,0,0,0
1561460802843.75,-12,6,62,0,0,0,0,0
1561460802875,-9,5,62,0,0,0,0,0
1561460802906.25,-10,4,61,0,0,0,0,0
1561460802937.5,-2,-3,60,0,0,0,0,0
1561460802968.75,-6,-2,62,0,0,0,0,0
1561460803000,-15,2,65,0,0,0,0,0
1561460803031.25,-13,1,65,0,0,0,0,0
1561460803062.5,-10,-3,64,0,0,0,0,0
1561460803093.75,-7,-3,64,0,0,0,0,0
1561460803125,-9,-5,64,0,0,0,0,0
1561460803156.25,-11,-6,65,0,0,0,0,0
1561460803187.5,-11,-7,63,0,0,0,0,0
1561460803218.75,-13,-19,66,0,0,0,0,0
1561460803250,-14,-23,69,0,0,0,0,0
1561460803281.25,-14,-12,73,0,0,0,0,0
1561460803312.5,-11,-10,72,0,0,0,0,0
1561460803343.75,-9,-3,70,0,0,0,0,0
1561460803375,-7,-1,69,0,0,0,0,0
1561460803406.25,2,4,68,0,0,0,0,0
1561460803437.5,4,10,59,0,0,0,0,0
1561460803468.75,6,10,40,0,0,0,0,0
1561460803500,12,9,38,0,0,0,0,0
1561460803531.25,11,7,29,0,0,0,0,0
1561460803562.5,46,-3,34,0,0,0,0,0
1561460803593.75,78,-13,51,0,0,0,0,0
1561460803625,57,-31,58,0,0,0,0,0
1561460803656.25,65,-33,53,0,0,0,0,0
1561460803687.5,69,-40,28,0,0,0,0,0
1561460803718.75,67,-35,25,0,0,0,0,0
1561460803750,53,-24,27,0,0,0,0,0
1561460803781.25,47,-25,20,0,0,0,0,0
1561460803812.5,36,-18,36,0,0,0,0,0
1561460803843.75,37,-16,40,0,0,0,0,0
1561460803875,47,-22,26,0,0,0,0,0
1561460803906.25,51,-16,45,0,0,0,0,0
1561460803937.5,52,-21,39,0,0,0,0,0
1561460803968.75,41,-19,36,0,0,0,0,0
1561460804000,39,-17,37,0,0,0,0,0
1561460804031.25,45,-22,39,0,0,0,0,0
1561460804062.5,37,-21,39,0,0,0,0,0
1561460804093.75,33,-22,40,0,0,0,0,0
1561460804125,32,-22,38,0,0,0,0,0
1561460804156.25,46,-20,39,0,0,0,0,0
1561460804187.5,52,-19,40,0,0,0,0,0
1561460804218.75,48,-20,35,0,0,0,0,0
1561460804250,50,-17,38,0,0,0,0,0
1561460804281.25,53,-16,40,0,0,0,0,0
1561460804312.5,46,-19,36,0,0,0,0,0
1561460804343.75,47,-19,34,0,0,0,0,0
1561460804375,46,-15,35,0,0,0,0,0
1561460804406.25,54,-16,33,0,0,0,0,0
1561460804437.5,53,-19,29,0,0,0,0,0
1561460804468.75,47,-18,27,0,0,0,0,0
1561460804500,50,-18,31,0,0,0,0,0
1561460804531.25,50,-20,28,0,0,0,0,0
1561460804562.5,58,-19,29,0,0,0,0,0
1561460804593.75,57,-18,30,0,0,0,0,0
1561460804625,49,-19,32,0,0,0,0,0
1561460804656.25,51,-18,32,0,0,0,0,0
1561460804687.5,49,-19,28,0,0,0,0,0
1561460804718.75,60,-16,32,0,0,0,0,0
1561460804750,59,-15,32,0,0,0,0,0
1561460804781.25,59,-17,28,0,0,0,0,0
1561460804812.5,55,-16,27,0,0,0,0,0
1561460804843.75,52,-13,36,0,0,0,0,0
1561460804875,48,-16,34,0,0,0,0,0
1561460804906.25,53,-18,29,0,0,0,0,0
1561460804937.5,50,-19,25,0,0,0,0,0
1561460804968.75,44,-21,15,0,0,0,0,0
1561460805000,56,-20,17,0,0,0,0,0
1561460805031.25,54,-20,13,0,0,0,0,0
1561460805062.5,57,-20,9,0,0,0,0,0
1561460805093.75,67,-21,10,0,0,0,0,0
1561460805125,53,-16,11,0,0,0,0,0
1561460805156.25,54,-16,9,0,0,0,0,0
1561460805187.5,54,-15,7,0,0,0,0,0
1561460805218.75,46,-13,-2,0,0,0,0,0
1561460805250,79,-14,-2,0,0,0,0,0
1561460805281.25,83,-12,5,0,0,0,0,0
1561460805312.5,65,-8,14,0,0,0,0,0
1561460805343.75,52,-6,16,0,0,0,0,0
1561460805375,46,-1,28,0,0,0,0,0
1561460805406.25,48,0,34,0,0,0,0,0
1561460805437.5,51,2,46,0,0,0,0,0
1561460805468.75,43,3,51,0,0,0,0,0
1561460805500,36,-1,48,0,0,0,0,0
1561460805531.25,38,-1,46,0,0,0,0,0
1561460805562.5,44,-2,42,0,0,0,0,0
1561460805593.75,52,-2,39,0,0,0,0,0
1561460805625,54,-3,38,0,0,0,0,0
1561460805656.25,54,-2,36,0,0,0,0,0
1561460805687.5,52,-2,36,0,0,0,0,0
1561460805718.75,49,-2,39,0,0,0,0,0
1561460805750,48,-2,40,0,0,0,0,0
1561460805781.25,47,-1,42,0,0,0,0,0
1561460805812.5,46,-1,43,0,0,0,0,0
1561460805843.75,46,-1,42,0,0,0,0,0
1561460805875,47,-2,42,0,0,0,0,0
1561460805906.25,49,-2,40,0,0,0,0,0
1561460805937.5,48,-2,40,0,0,0,0,0
1561460805968.75,48,-2,40,0,0,0,0,0
1561460806000,47,-2,42,0,0,0,0,0
1561460806031.25,46,-2,42,0,0,0,0,0
1561460806062.5,47,-1,42,0,0,0,0,0
1561460806093.75,47,-1,42,0,0,0,0,0
1561460806125,48,-1,42,0,0,0,0,0
1561460806156.25,47,-1,42,0,0,0,0,0
1561460806187.5,47,-1,42,0,0,0,0,0
1561460806218.75,46,-1,41,0,0,0,0,0
1561460806250,47,-2,42,0,0,0,0,0
1561460806281.25,47,-2,42,0,0,0,0,0
1561460806312.5,46,-1,42,0,0,0,0,0
1561460806343.75,46,-1,42,0,0,0,0,0
1561460806375,47,-1,42,0,0,0,0,0
1561460806406.25,47,0,42,0,0,0,0,0
1561460806437.5,47,0,42,0,0,0,0,0
1561460806468.75,47,-1,42,0,0,0,0,0
1561460806500,48,-2,42,0,0,0,0,0
1561460806531.25,47,-1,42,0,0,0,0,0
1561460806562.5,47,0,42,0,0,0,0,0
1561460806593.75,46,1,42,0,0,0,0,0
1561460806625,47,0,41,0,0,0,0,0
1561460806656.25,48,-1,42,0,0,0,0,0
1561460806687.5,48,-1,42,0,0,0,0,0
1561460806718.75,47,-1,43,0,0,0,0,0
1561460806750,46,-1,42,0,0,0,0,0
1561460806781.25,46,-1,42,0,0,0,0,0
1561460806812.5,47,-1,42,0,0,0,0,0
1561460806843.75,48,-1,42,0,0,0,0,0
1561460806875,47,-1,43,0,0,0,0,0
1561460806906.25,46,-1,43,0,0,0,0,0
1561460806937.5,46,-1,43,0,0,0,0,0
1561460806968.75,47,0,42,0,0,0,0,0
1561460807000,47,0,42,0,0,0,0,0
1561460807031.25,48,0,41,0,0,0,0,0
1561460807062.5,48,-1,41,0,0,0,0,0
1561460807093.75,49,-1,41,0,0,0,0,0
1561460807125,47,0,42,0,0,0,0,0
1561460807156.25,47,0,42,0,0,0,0,0
1561460807187.5,47,0,42,0,0,0,0,0
1561460807218.75,47,0,42,0,0,0,0,0
1561460807250,47,-1,42,0,0,0,0,0
1561460807281.25,47,-1,42,0,0,0,0,0
1561460807312.5,47,-1,42,0,0,0,0,0
1561460807343.75,47,0,42,0,0,0,0,0
1561460807375,47,-1,42,0,0,0,0,0
1561460807406.25,48,0,41,0,0,0,0,0
1561460807437.5,48,0,41,0,0,0,0,0
1561460807468.75,47,0,42,0,0,0,0,0
1561460807500,47,0,42,0,0,0,0,0
1561460807531.25,48,-1,42,0,0,0,0,0
1561460807562.5,47,-1,41,0,0,0,0,0
1561460807593.75,47,-1,41,0,0,0,0,0
1561460807625,47,-1,42,0,0,0,0,0
1561460807656.25,47,-1,42,0,0,0,0,0
1561460807687.5,47,-1,42,0,0,0,0,0
1561460807718.75,47,-1,42,0,0,0,0,0
1561460807750,48,0,42,0,0,0,0,0
1561460807781.25,47,0,41,0,0,0,0,0
1561460807812.5,47,0,41,0,0,0,0,0
1561460807843.75,48,-1,41,0,0,0,0,0
1561460807875,47,-1,42,0,0,0,0,0
1561460807906.25,47,-2,42,0,0,0,0,0
1561460807937.5,47,-1,42,0,0,0,0,0
1561460807968.75,48,-1,42,0,0,0,0,0
1561460808000,48,-1,41,0,0,0,0,0
1561460808031.25,48,0,41,0,0,0,0,0
1561460808062.5,48,-1,41,0,0,0,0,0
1561460808093.75,47,-1,42,0,0,0,0,0
1561460808125,47,-1,42,0,0,0,0,0
1561460808156.25,46,-1,42,0,0,0,0,0
1561460808187.5,47,-1,42,0,0,0,0,0
1561460808218.75,47,-1,41,0,0,0,0,0
1561460808250,48,-1,41,0,0,0,0,0
1561460808281.25,48,-1,42,0,0,0,0,0
1561460808312.5,47,-1,42,0,0,0,0,0
1561460808343.75,46,-1,42,0,0,0,0,0
1561460808375,47,-1,42,0,0,0,0,0
1561460808406.25,48,-1,42,0,0,0,0,0
1561460808437.5,47,-1,42,0,0,0,0,0
1561460808468.75,47,-1,42,0,0,0,0,0
1561460808500,47,-1,42,0,0,0,0,0
1561460808531.25,47,-1,42,0,0,0,0,0
1561460808562.5,47,-1,42,0,0,0,0,0
1561460808593.75,47,-1,42,0,0,0,0,0
1561460808625,47,-1,42,0,0,0,0,0
1561460808656.25,47,-1,42,0,0,0,0,0
1561460808687.5,46,-1,42,0,0,0,0,0
1561460808718.75,46,-1,43,0,0,0,0,0
1561460808750,47,-1,42,0,0,0,0,0
1561460808781.25,47,-1,42,0,0,0,0,0
1561460808812.5,47,-1,42,0,0,0,0,0
1561460808843.75,46,-1,42,0,0,0,0,0
1561460808875,46,-1,42,0,0,0,0,0
1561460808906.25,47,-2,42,0,0,0,0,0
1561460808937.5,47,-3,42,0,0,0,0,0
1561460808968.75,47,-2,43,0,0,0,0,0
1561460809000,47,0,43,0,0,0,0,0
1561460809031.25,46,1,42,0,0,0,0,0
1561460809062.5,47,1,42,0,0,0,0,0
1561460809093.75,47,0,43,0,0,0,0,0
1561460809125,46,0,43,0,0,0,0,0
1561460809156.25,46,-1,43,0,0,0,0,0
1561460809187.5,46,-1,43,0,0,0,0,0
1561460809218.75,47,-1,43,0,0,0,0,0
1561460809250,47,0,42,0,0,0,0,0
1561460809281.25,46,0,42,0,0,0,0,0
1561460809312.5,46,-1,44,0,0,0,0,0
1561460809343.75,46,-1,44,0,0,0,0,0
1561460809375,46,-1,44,0,0,0,0,0
1561460809406.25,45,0,44,0,0,0,0,0
1561460809437.5,45,0,43,0,0,0,0,0
1561460809468.75,45,0,43,0,0,0,0,0
1561460809500,46,0,43,0,0,0,0,0
1561460809531.25,46,-1,44,0,0,0,0,0
1561460809562.5,46,-1,43,0,0,0,0,0
1561460809593.75,46,0,42,0,0,0,0,0
1561460809625,45,0,42,0,0,0,0,0
1561460809656.25,47,-1,42,0,0,0,0,0
1561460809687.5,47,-1,42,0,0,0,0,0
1561460809718.75,47,0,42,0,0,0,0,0
1561460809750,47,0,43,0,0,0,0,0
1561460809781.25,46,-1,42,0,0,0,0,0
1561460809812.5,45,-2,42,0,0,0,0,0
1561460809843.75,47,-2,42,0,0,0,0,0
1561460809875,47,-1,42,0,0,0,0,0
1561460809906.25,47,0,42,0,0,0,0,0
1561460809937.5,46,0,42,0,0,0,0,0
1561460809968.75,47,1,41,0,0,0,0,0
1561460810000,48,1,41,0,0,0,0,0
1561460810031.25,47,1,40,0,0,0,0,0
1561460810062.5,49,0,40,0,0,0,0,0
1561460810093.75,49,1,41,0,0,0,0,0
1561460810125,48,0,38,0,0,0,0,0
1561460810156.25,49,-1,37,0,0,0,0,0
1561460810187.5,52,1,37,0,0,0,0,0
1561460810218.75,52,2,35,0,0,0,0,0
1561460810250,53,1,35,0,0,0,0,0
1561460810281.25,55,1,35,0,0,0,0,0
1561460810312.5,52,-5,30,0,0,0,0,0
1561460810343.75,56,-2,36,0,0,0,0,0
1561460810375,55,2,37,0,0,0,0,0
1561460810406.25,47,5,35,0,0,0,0,0
1561460810437.5,48,9,34,0,0,0,0,0
1561460810468.75,57,7,28,0,0,0,0,0
1561460810500,60,4,25,0,0,0,0,0
1561460810531.25,59,2,22,0,0,0,0,0
1561460810562.5,58,1,21,0,0,0,0,0
1561460810593.75,59,0,23,0,0,0,0,0
1561460810625,60,0,24,0,0,0,0,0
1561460810656.25,60,3,25,0,0,0,0,0
1561460810687.5,58,4,24,0,0,0,0,0
1561460810718.75,59,7,23,0,0,0,0,0
1561460810750,61,8,21,0,0,0,0,0
1561460810781.25,9,9,22,0,0,0,0,0
1561460810812.5,99,-1,33,0,0,0,0,0
1561460810843.75,84,20,48,0,0,0,0,0
1561460810875,39,15,37,0,0,0,0,0
1561460810906.25,31,8,33,0,0,0,0,0
1561460810937.5,46,2,37,0,0,0,0,0
1561460810968.75,42,-6,28,0,0,0,0,0
1561460811000,64,-1,31,0,0,0,0,0
1561460811031.25,71,0,37,0,0,0,0,0
1561460811062.5,51,0,31,0,0,0,0,0
1561460811093.75,48,4,33,0,0,0,0,0
1561460811125,52,3,31,0,0,0,0,0
1561460811156.25,59,0,29,0,0,0,0,0
1561460811187.5,55,-1,29,0,0,0,0,0
1561460811218.75,47,0,32,0,0,0,0,0
1561460811250,46,2,36,0,0,0,0,0
1561460811281.25,48,5,43,0,0,0,0,0
1561460811312.5,49,6,43,0,0,0,0,0
1561460811343.75,50,5,38,0,0,0,0,0
1561460811375,49,5,36,0,0,0,0,0
1561460811406.25,51,4,33,0,0,0,0,0
1561460811437.5,52,4,33,0,0,0,0,0
1561460811468.75,53,5,34,0,0,0,0,0
1561460811500,52,4,35,0,0,0,0,0
1561460811531.25,51,5,38,0,0,0,0,0
1561460811562.5,52,5,38,0,0,0,0,0
1561460811593.75,55,4,36,0,0,0,0,0
1561460811625,56,4,34,0,0,0,0,0
1561460811656.25,55,5,34,0,0,0,0,0
1561460811687.5,51,7,35,0,0,0,0,0
1561460811718.75,49,6,35,0,0,0,0,0
1561460811750,49,3,36,0,0,0,0,0
1561460811781.25,50,2,36,0,0,0,0,0
1561460811812.5,54,0,36,0,0,0,0,0
1561460811843.75,52,0,36,0,0,0,0,0
1561460811875,49,3,38,0,0,0,0,0
1561460811906.25,49,4,38,0,0,0,0,0
1561460811937.5,51,5,38,0,0,0,0,0
1561460811968.75,51,5,37,0,0,0,0,0
1561460812000,52,5,36,0,0,0,0,0
1561460812031.25,52,4,35,0,0,0,0,0
1561460812062.5,52,4,35,0,0,0,0,0
1561460812093.75,51,4,36,0,0,0,0,0
1561460812125,51,3,37,0,0,0,0,0
1561460812156.25,51,4,37,0,0,0,0,0
1561460812187.5,51,4,36,0,0,0,0,0
1561460812218.75,52,4,36,0,0,0,0,0
1561460812250,51,5,36,0,0,0,0,0
1561460812281.25,51,5,37,0,0,0,0,0
1561460812312.5,51,5,36,0,0,0,0,0
1561460812343.75,51,5,37,0,0,0,0,0
1561460812375,51,5,37,0,0,0,0,0
1561460812406.25,51,5,37,0,0,0,0,0
1561460812437.5,52,4,36,0,0,0,0,0
1561460812468.75,52,4,36,0,0,0,0,0
1561460812500,50,4,36,0,0,0,0,0
1561460812531.25,52,5,37,0,0,0,0,0
1561460812562.5,51,5,37,0,0,0,0,0
1561460812593.75,51,5,37,0,0,0,0,0
1561460812625,51,5,38,0,0,0,0,0
1561460812656.25,50,4,37,0,0,0,0,0
1561460812687.5,49,4,37,0,0,0,0,0
1561460812718.75,50,5,37,0,0,0,0,0
1561460812750,47,7,36,0,0,0,0,0
1561460812781.25,44,7,38,0,0,0,0,0
1561460812812.5,45,6,39,0,0,0,0,0
1561460812843.75,51,6,44,0,0,0,0,0
1561460812875,53,5,44,0,0,0,0,0
1561460812906.25,51,3,44,0,0,0,0,0
1561460812937.5,50,2,42,0,0,0,0,0
1561460812968.75,56,2,45,0,0,0,0,0
1561460813000,56,5,47,0,0,0,0,0
1561460813031.25,46,9,43,0,0,0,0,0
1561460813062.5,41,7,39,0,0,0,0,0
1561460813093.75,43,3,33,0,0,0,0,0
1561460813125,46,1,32,0,0,0,0,0
1561460813156.25,50,-2,31,0,0,0,0,0
1561460813187.5,52,-2,35,0,0,0,0,0
1561460813218.75,51,-2,37,0,0,0,0,0
1561460813250,51,-1,42,0,0,0,0,0
1561460813281.25,49,0,43,0,0,0,0,0
1561460813312.5,45,1,44,0,0,0,0,0
1561460813343.75,45,1,44,0,0,0,0,0
1561460813375,46,5,43,0,0,0,0,0
1561460813406.25,48,6,43,0,0,0,0,0
1561460813437.5,50,7,41,0,0,0,0,0
1561460813468.75,50,6,39,0,0,0,0,0
1561460813500,57,2,36,0,0,0,0,0
1561460813531.25,64,0,38,0,0,0,0,0
1561460813562.5,45,0,28,0,0,0,0,0
1561460813593.75,36,3,32,0,0,0,0,0
1561460813625,49,6,43,0,0,0,0,0
1561460813656.25,46,11,52,0,0,0,0,0
1561460813687.5,50,10,56,0,0,0,0,0
1561460813718.75,41,5,46,0,0,0,0,0
1561460813750,37,4,42,0,0,0,0,0
1561460813781.25,41,0,37,0,0,0,0,0
1561460813812.5,49,-2,35,0,0,0,0,0
1561460813843.75,58,-5,32,0,0,0,0,0
1561460813875,57,-4,33,0,0,0,0,0
1561460813906.25,57,-5,35,0,0,0,0,0
1561460813937.5,58,-2,38,0,0,0,0,0
1561460813968.75,48,1,40,0,0,0,0,0
1561460814000,50,0,40,0,0,0,0,0
1561460814031.25,53,2,39,0,0,0,0,0
1561460814062.5,51,7,38,0,0,0,0,0
1561460814093.75,47,9,39,0,0,0,0,0
1561460814125,44,12,42,0,0,0,0,0
1561460814156.25,45,11,41,0,0,0,0,0
1561460814187.5,47,5,38,0,0,0,0,0
1561460814218.75,51,4,38,0,0,0,0,0
1561460814250,56,2,38,0,0,0,0,0
1561460814281.25,55,0,36,0,0,0,0,0
1561460814312.5,54,-3,33,0,0,0,0,0
1561460814343.75,54,-4,33,0,0,0,0,0
1561460814375,53,-4,33,0,0,0,0,0
1561460814406.25,45,-3,31,0,0,0,0,0
1561460814437.5,48,-1,34,0,0,0,0,0
1561460814468.75,55,2,43,0,0,0,0,0
1561460814500,49,3,44,0,0,0,0,0
1561460814531.25,47,5,44,0,0,0,0,0
1561460814562.5,47,5,45,0,0,0,0,0
1561460814593.75,42,1,47,0,0,0,0,0
1561460814625,43,-2,47,0,0,0,0,0
1561460814656.25,40,-3,41,0,0,0,0,0
1561460814687.5,39,-4,37,0,0,0,0,0
1561460814718.75,56,-4,35,0,0,0,0,0
1561460814750,60,-5,33,0,0,0,0,0
1561460814781.25,55,-1,30,0,0,0,0,0
1561460814812.5,52,2,27,0,0,0,0,0
1561460814843.75,49,3,25,0,0,0,0,0
1561460814875,56,4,22,0,0,0,0,0
1561460814906.25,61,5,23,0,0,0,0,0
1561460814937.5,62,7,25,0,0,0,0,0
1561460814968.75,60,9,27,0,0,0,0,0
1561460815000,59,12,36,0,0,0,0,0
1561460815031.25,55,14,38,0,0,0,0,0
1561460815062.5,45,12,37,0,0,0,0,0
1561460815093.75,47,10,36,0,0,0,0,0
1561460815125,55,11,29,0,0,0,0,0
1561460815156.25,55,14,28,0,0,0,0,0
1561460815187.5,64,10,22,0,0,0,0,0
1561460815218.75,58,22,32,0,0,0,0,0
1561460815250,52,21,34,0,0,0,0,0
1561460815281.25,43,17,30,0,0,0,0,0
1561460815312.5,44,14,31,0,0,0,0,0
1561460815343.75,57,11,35,0,0,0,0,0
1561460815375,59,9,34,0,0,0,0,0
1561460815406.25,58,9,29,0,0,0,0,0
1561460815437.5,56,9,28,0,0,0,0,0
1561460815468.75,48,9,29,0,0,0,0,0
1561460815500,48,6,32,0,0,0,0,0
1561460815531.25,56,6,34,0,0,0,0,0
1561460815562.5,59,4,31,0,0,0,0,0
1561460815593.75,60,0,21,0,0,0,0,0
1561460815625,63,-5,8,0,0,0,0,0
1561460815656.25,67,-6,7,0,0,0,0,0
1561460815687.5,65,-8,11,0,0,0,0,0
1561460815718.75,61,-8,15,0,0,0,0,0
1561460815750,54,-9,25,0,0,0,0,0
1561460815781.25,51,-7,30,0,0,0,0,0
1561460815812.5,44,-4,40,0,0,0,0,0
1561460815843.75,42,-2,44,0,0,0,0,0
1561460815875,42,2,47,0,0,0,0,0
1561460815906.25,44,3,45,0,0,0,0,0
1561460815937.5,47,1,35,0,0,0,0,0
1561460815968.75,51,0,32,0,0,0,0,0
1561460816000,59,-3,28,0,0,0,0,0
1561460816031.25,62,-4,25,0,0,0,0,0
1561460816062.5,61,-3,25,0,0,0,0,0
1561460816093.75,56,-1,26,0,0,0,0,0
1561460816125,55,0,28,0,0,0,0,0
1561460816156.25,53,1,33,0,0,0,0,0
1561460816187.5,52,1,35,0,0,0,0,0
1561460816218.75,51,1,37,0,0,0,0,0
1561460816250,50,1,38,0,0,0,0,0
1561460816281.25,49,3,38,0,0,0,0,0
1561460816312.5,48,4,37,0,0,0,0,0
1561460816343.75,50,2,35,0,0,0,0,0
1561460816375,55,-3,33,0,0,0,0,0
1561460816406.25,56,-4,32,0,0,0,0,0
1561460816437.5,53,-3,31,0,0,0,0,0
1561460816468.75,52,-2,30,0,0,0,0,0
1561460816500,54,-1,28,0,0,0,0,0
1561460816531.25,59,-1,29,0,0,0,0,0
1561460816562.5,57,-2,31,0,0,0,0,0
1561460816593.75,56,-2,30,0,0,0,0,0
1561460816625,54,-1,29,0,0,0,0,0
1561460816656.25,55,0,29,0,0,0,0,0
1561460816687.5,57,1,28,0,0,0,0,0
1561460816718.75,57,1,26,0,0,0,0,0
1561460816750,60,-2,28,0,0,0,0,0
1561460816781.25,58,-3,35,0,0,0,0,0
1561460816812.5,51,-7,39,0,0,0,0,0
1561460816843.75,61,-11,53,0,0,0,0,0
1561460816875,66,14,63,0,0,0,0,0
1561460816906.25,53,41,74,0,0,0,0,0
1561460816937.5,6,40,61,0,0,0,0,0
1561460816968.75,-21,15,53,0,0,0,0,0
1561460817000,-3,18,56,0,0,0,0,0
1561460817031.25,-19,11,50,0,0,0,0,0
1561460817062.5,-11,6,55,0,0,0,0,0
1561460817093.75,-5,7,40,0,0,0,0,0
1561460817125,-17,4,32,0,0,0,0,0
1561460817156.25,7,7,56,0,0,0,0,0
1561460817187.5,9,10,55,0,0,0,0,0
1561460817218.75,11,14,71,0,0,0,0,0
1561460817250,-8,12,66,0,0,0,0,0
1561460817281.25,8,14,67,0,0,0,0,0
1561460817312.5,-2,16,68,0,0,0,0,0
1561460817343.75,0,16,68,0,0,0,0,0
1561460817375,-6,10,66,0,0,0,0,0
1561460817406.25,-5,9,59,0,0,0,0,0
1561460817437.5,-2,12,64,0,0,0,0,0
1561460817468.75,1,10,65,0,0,0,0,0
1561460817500,-7,9,59,0,0,0,0,0
1561460817531.25,-5,9,62,0,0,0,0,0
1561460817562.5,-6,5,57,0,0,0,0,0
1561460817593.75,-6,10,59,0,0,0,0,0
1561460817625,-10,15,60,0,0,0,0,0
1561460817656.25,-14,10,56,0,0,0,0,0
1561460817687.5,-10,9,58,0,0,0,0,0
1561460817718.75,-14,11,58,0,0,0,0,0
1561460817750,-12,15,59,0,0,0,0,0
1561460817781.25,10,11,61,0,0,0,0,0
1561460817812.5,-5,16,62,0,0,0,0,0
1561460817843.75,4,16,60,0,0,0,0,0
1561460817875,4,15,59,0,0,0,0,0
1561460817906.25,-11,15,57,0,0,0,0,0
1561460817937.5,-7,15,55,0,0,0,0,0
1561460817968.75,-6,15,69,0,0,0,0,0
1561460818000,-9,10,63,0,0,0,0,0
1561460818031.25,2,9,68,0,0,0,0,0
1561460818062.5,-13,12,65,0,0,0,0,0
1561460818093.75,-11,13,67,0,0,0,0,0
1561460818125,17,13,59,0,0,0,0,0
1561460818156.25,22,18,62,0,0,0,0,0
1561460818187.5,15,8,66,0,0,0,0,0
1561460818218.75,22,7,67,0,0,0,0,0
1561460818250,20,2,70,0,0,0,0,0
1561460818281.25,10,2,67,0,0,0,0,0
1561460818312.5,16,-1,59,0,0,0,0,0
1561460818343.75,8,0,55,0,0,0,0,0
1561460818375,-3,3,62,0,0,0,0,0
1561460818406.25,1,-5,53,0,0,0,0,0
1561460818437.5,-3,-1,53,0,0,0,0,0
1561460818468.75,-15,0,62,0,0,0,0,0
1561460818500,-6,-3,62,0,0,0,0,0
1561460818531.25,33,-4,64,0,0,0,0,0
1561460818562.5,10,-3,61,0,0,0,0,0
1561460818593.75,11,-8,69,0,0,0,0,0
1561460818625,16,-10,66,0,0,0,0,0
1561460818656.25,14,-16,51,0,0,0,0,0
1561460818687.5,11,-12,56,0,0,0,0,0
1561460818718.75,8,-1,69,0,0,0,0,0
1561460818750,5,1,64,0,0,0,0,0
1561460818781.25,5,1,72,0,0,0,0,0
1561460818812.5,-5,1,71,0,0,0,0,0
1561460818843.75,-1,2,72,0,0,0,0,0
1561460818875,3,6,75,0,0,0,0,0
1561460818906.25,1,5,71,0,0,0,0,0
1561460818937.5,4,1,63,0,0,0,0,0
1561460818968.75,6,-3,58,0,0,0,0,0
1561460819000,10,-5,51,0,0,0,0,0
1561460819031.25,18,-6,59,0,0,0,0,0
1561460819062.5,16,-2,64,0,0,0,0,0
1561460819093.75,20,0,63,0,0,0,0,0
1561460819125,18,4,70,0,0,0,0,0
1561460819156.25,11,6,72,0,0,0,0,0
1561460819187.5,20,-3,57,0,0,0,0,0
1561460819218.75,4,0,62,0,0,0,0,0
1561460819250,-1,6,60,0,0,0,0,0
1561460819281.25,6,13,73,0,0,0,0,0
1561460819312.5,-8,20,64,0,0,0,0,0
1561460819343.75,-3,14,76,0,0,0,0,0
1561460819375,-6,17,71,0,0,0,0,0
1561460819406.25,48,3,68,0,0,0,0,0
1561460819437.5,57,-5,71,0,0,0,0,0
1561460819468.75,42,-10,54,0,0,0,0,0
1561460819500,37,-13,47,0,0,0,0,0
1561460819531.25,53,-20,42,0,0,0,0,0
1561460819562.5,48,-24,31,0,0,0,0,0
1561460819593.75,66,-21,5,0,0,0,0,0
1561460819625,41,-18,12,0,0,0,0,0
1561460819656.25,26,-8,27,0,0,0,0,0
1561460819687.5,16,-5,40,0,0,0,0,0
1561460819718.75,19,-1,39,0,0,0,0,0
1561460819750,38,9,64,0,0,0,0,0
1561460819781.25,41,9,62,0,0,0,0,0
1561460819812.5,43,10,48,0,0,0,0,0
1561460819843.75,40,6,28,0,0,0,0,0
1561460819875,5,25,48,0,0,0,0,0
1561460819906.25,11,22,54,0,0,0,0,0
1561460819937.5,86,21,73,0,0,0,0,0
1561460819968.75,53,21,54,0,0,0,0,0
1561460820000,49,12,48,0,0,0,0,0
1561460820031.25,16,7,27,0,0,0,0,0
1561460820062.5,12,16,20,0,0,0,0,0
1561460820093.75,23,37,74,0,0,0,0,0
1561460820125,10,32,73,0,0,0,0,0
1561460820156.25,29,31,43,0,0,0,0,0
1561460820187.5,37,27,45,0,0,0,0,0
1561460820218.75,36,20,49,0,0,0,0,0
1561460820250,50,14,46,0,0,0,0,0
1561460820281.25,32,20,41,0,0,0,0,0
1561460820312.5,28,20,51,0,0,0,0,0
1561460820343.75,18,10,56,0,0,0,0,0
1561460820375,13,20,52,0,0,0,0,0
1561460820406.25,4,30,33,0,0,0,0,0
1561460820437.5,22,35,47,0,0,0,0,0
1561460820468.75,34,41,62,0,0,0,0,0
1561460820500,51,32,68,0,0,0,0,0
1561460820531.25,40,20,50,0,0,0,0,0
1561460820562.5,26,19,48,0,0,0,0,0
1561460820593.75,25,23,59,0,0,0,0,0
1561460820625,29,22,61,0,0,0,0,0
1561460820656.25,37,12,61,0,0,0,0,0
1561460820687.5,26,-1,74,0,0,0,0,0
1561460820718.75,17,16,71,0,0,0,0,0
1561460820750,17,31,63,0,0,0,0,0
1561460820781.25,12,40,64,0,0,0,0,0
1561460820812.5,7,49,81,0,0,0,0,0
1561460820843.75,11,39,60,0,0,0,0,0
1561460820875,1,41,55,0,0,0,0,0
1561460820906.25,29,26,44,0,0,0,0,0
1561460820937.5,37,18,43,0,0,0,0,0
1561460820968.75,40,11,32,0,0,0,0,0
1561460821000,41,8,26,0,0,0,0,0
1561460821031.25,50,4,21,0,0,0,0,0
1561460821062.5,59,-1,18,0,0,0,0,0
1561460821093.75,70,-6,16,0,0,0,0,0
1561460821125,47,-12,3,0,0,0,0,0
1561460821156.25,67,-8,27,0,0,0,0,0
1561460821187.5,92,6,42,0,0,0,0,0
1561460821218.75,53,-1,18,0,0,0,0,0
1561460821250,68,23,52,0,0,0,0,0
1561460821281.25,48,21,43,0,0,0,0,0
1561460821312.5,24,29,46,0,0,0,0,0
1561460821343.75,37,35,56,0,0,0,0,0
1561460821375,44,40,57,0,0,0,0,0
1561460821406.25,17,39,56,0,0,0,0,0
1561460821437.5,19,37,59,0,0,0,0,0
1561460821468.75,18,32,52,0,0,0,0,0
1561460821500,42,55,45,0,0,0,0,0
1561460821531.25,-7,59,62,0,0,0,0,0
1561460821562.5,16,40,53,0,0,0,0,0
1561460821593.75,20,28,43,0,0,0,0,0
1561460821625,4,36,44,0,0,0,0,0
1561460821656.25,10,50,45,0,0,0,0,0
1561460821687.5,19,44,40,0,0,0,0,0
1561460821718.75,12,38,46,0,0,0,0,0
1561460821750,8,42,52,0,0,0,0,0
1561460821781.25,13,46,64,0,0,0,0,0
1561460821812.5,36,53,72,0,0,0,0,0
1561460821843.75,26,43,46,0,0,0,0,0
1561460821875,13,40,37,0,0,0,0,0
1561460821906.25,20,29,36,0,0,0,0,0
1561460821937.5,19,33,38,0,0,0,0,0
1561460821968.75,0,46,46,0,0,0,0,0
1561460822000,18,46,55,0,0,0,0,0
1561460822031.25,31,46,56,0,0,0,0,0
1561460822062.5,22,41,46,0,0,0,0,0
1561460822093.75,15,36,35,0,0,0,0,0
1561460822125,26,37,28,0,0,0,0,0
1561460822156.25,17,62,12,0,0,0,0,0
1561460822187.5,99,58,38,0,0,0,0,0
1561460822218.75,91,62,27,0,0,0,0,0
1561460822250,91,35,7,0,0,0,0,0
1561460822281.25,86,21,10,0,0,0,0,0
1561460822312.5,62,-6,47,0,0,0,0,0
1561460822343.75,48,-16,45,0,0,0,0,0
1561460822375,42,-13,41,0,0,0,0,0
1561460822406.25,60,10,24,0,0,0,0,0
1561460822437.5,88,15,30,0,0,0,0,0
1561460822468.75,41,8,-19,0,0,0,0,0
1561460822500,36,13,-26,0,0,0,0,0
1561460822531.25,67,11,-7,0,0,0,0,0
1561460822562.5,67,2,-12,0,0,0,0,0
1561460822593.75,59,-2,-13,0,0,0,0,0
1561460822625,52,1,-7,0,0,0,0,0
1561460822656.25,58,-2,-1,0,0,0,0,0
1561460822687.5,62,-5,-6,0,0,0,0,0
1561460822718.75,56,-9,6,0,0,0,0,0
1561460822750,52,-15,9,0,0,0,0,0
1561460822781.25,53,-27,6,0,0,0,0,0
1561460822812.5,44,-28,19,0,0,0,0,0
1561460822843.75,57,-26,25,0,0,0,0,0
1561460822875,59,-37,7,0,0,0,0,0
1561460822906.25,45,-32,14,0,0,0,0,0
1561460822937.5,53,-22,17,0,0,0,0,0
1561460822968.75,55,-17,19,0,0,0,0,0
1561460823000,49,-12,25,0,0,0,0,0
1561460823031.25,42,-12,23,0,0,0,0,0
1561460823062.5,38,-12,33,0,0,0,0,0
1561460823093.75,40,-8,42,0,0,0,0,0
1561460823125,69,-6,50,0,0,0,0,0
1561460823156.25,76,-18,55,0,0,0,0,0
1561460823187.5,63,-25,52,0,0,0,0,0
1561460823218.75,11,-23,27,0,0,0,0,0
1561460823250,7,-14,30,0,0,0,0,0
1561460823281.25,22,3,47,0,0,0,0,0
1561460823312.5,27,11,40,0,0,0,0,0
1561460823343.75,-1,19,27,0,0,0,0,0
1561460823375,18,38,38,0,0,0,0,0
1561460823406.25,23,53,43,0,0,0,0,0
1561460823437.5,14,56,44,0,0,0,0,0
1561460823468.75,7,62,46,0,0,0,0,0
1561460823500,-13,59,36,0,0,0,0,0
1561460823531.25,-32,66,30,0,0,0,0,0
1561460823562.5,-32,67,38,0,0,0,0,0
1561460823593.75,-46,90,89,0,0,0,0,0
1561460823625,-73,22,28,0,0,0,0,0
1561460823656.25,-4,46,46,0,0,0,0,0
1561460823687.5,-6,28,43,0,0,0,0,0
1561460823718.75,-22,28,36,0,0,0,0,0
1561460823750,-31,55,10,0,0,0,0,0
1561460823781.25,-53,72,-5,0,0,0,0,0
1561460823812.5,7,86,38,0,0,0,0,0
1561460823843.75,8,85,9,0,0,0,0,0
1561460823875,-19,67,29,0,0,0,0,0
1561460823906.25,-7,53,29,0,0,0,0,0
1561460823937.5,-1,55,27,0,0,0,0,0
1561460823968.75,-4,56,24,0,0,0,0,0
1561460824000,12,63,29,0,0,0,0,0
1561460824031.25,7,61,24,0,0,0,0,0
1561460824062.5,20,55,9,0,0,0,0,0
1561460824093.75,20,58,25,0,0,0,0,0
1561460824125,24,56,23,0,0,0,0,0
1561460824156.25,18,52,18,0,0,0,0,0
1561460824187.5,27,65,21,0,0,0,0,0
1561460824218.75,30,72,3,0,0,0,0,0
1561460824250,25,70,3,0,0,0,0,0
1561460824281.25,20,63,4,0,0,0,0,0
1561460824312.5,19,58,1,0,0,0,0,0
1561460824343.75,23,57,-5,0,0,0,0,0
1561460824375,21,57,-6,0,0,0,0,0
1561460824406.25,21,53,-3,0,0,0,0,0
1561460824437.5,28,53,-2,0,0,0,0,0
1561460824468.75,28,60,-2,0,0,0,0,0
1561460824500,32,65,-2,0,0,0,0,0
1561460824531.25,36,67,-3,0,0,0,0,0
1561460824562.5,36,57,9,0,0,0,0,0
1561460824593.75,34,55,7,0,0,0,0,0
1561460824625,30,57,8,0,0,0,0,0
1561460824656.25,27,55,3,0,0,0,0,0
1561460824687.5,31,57,8,0,0,0,0,0
1561460824718.75,30,58,7,0,0,0,0,0
1561460824750,24,55,4,0,0,0,0,0
1561460824781.25,23,56,9,0,0,0,0,0
1561460824812.5,5,68,1,0,0,0,0,0
1561460824843.75,33,60,7,0,0,0,0,0
1561460824875,21,62,4,0,0,0,0,0
1561460824906.25,21,63,9,0,0,0,0,0
1561460824937.5,20,61,5,0,0,0,0,0
1561460824968.75,19,59,11,0,0,0,0,0
1561460825000,17,62,11,0,0,0,0,0
1561460825031.25,9,65,7,0,0,0,0,0
1561460825062.5,11,61,14,0,0,0,0,0
1561460825093.75,15,64,18,0,0,0,0,0
1561460825125,11,66,14,0,0,0,0,0
1561460825156.25,-1,51,15,0,0,0,0,0
1561460825187.5,10,51,27,0,0,0,0,0
1561460825218.75,10,63,17,0,0,0,0,0
1561460825250,3,58,21,0,0,0,0,0
1561460825281.25,2,52,25,0,0,0,0,0
1561460825312.5,8,58,21,0,0,0,0,0
1561460825343.75,8,61,20,0,0,0,0,0
1561460825375,10,59,21,0,0,0,0,0
1561460825406.25,12,59,22,0,0,0,0,0
1561460825437.5,9,60,22,0,0,0,0,0
1561460825468.75,10,60,21,0,0,0,0,0
1561460825500,10,60,20,0,0,0,0,0
1561460825531.25,11,59,20,0,0,0,0,0
1561460825562.5,10,60,20,0,0,0,0,0
1561460825593.75,11,60,20,0,0,0,0,0
1561460825625,12,60,20,0,0,0,0,0
1561460825656.25,12,60,20,0,0,0,0,0
1561460825687.5,12,60,20,0,0,0,0,0
1561460825718.75,12,60,20,0,0,0,0,0
1561460825750,12,60,20,0,0,0,0,0
1561460825781.25,13,59,19,0,0,0,0,0
1561460825812.5,12,60,20,0,0,0,0,0
1561460825843.75,13,60,20,0,0,0,0,0
1561460825875,13,60,19,0,0,0,0,0
1561460825906.25,13,60,19,0,0,0,0,0
1561460825937.5,14,60,19,0,0,0,0,0
1561460825968.75,14,60,19,0,0,0,0,0
1561460826000,13,60,19,0,0,0,0,0
1561460826031.25,14,60,19,0,0,0,0,0
1561460826062.5,14,60,19,0,0,0,0,0
1561460826093.75,14,60,19,0,0,0,0,0
1561460826125,14,60,19,0,0,0,0,0
1561460826156.25,14,60,19,0,0,0,0,0
1561460826187.5,14,60,19,0,0,0,0,0
1561460826218.75,14,60,19,0,0,0,0,0
1561460826250,14,60,19,0,0,0,0,0
1561460826281.25,13,60,19,0,0,0,0,0
1561460826312.5,14,60,19,0,0,0,0,0
1561460826343.75,14,60,19,0,0,0,0,0
1561460826375,14,60,18,0,0,0,0,0
1561460826406.25,15,59,20,0,0,0,0,0
1561460826437.5,14,60,19,0,0,0,0,0
1561460826468.75,14,60,19,0,0,0,0,0
1561460826500,14,60,19,0,0,0,0,0
1561460826531.25,13,60,19,0,0,0,0,0
1561460826562.5,14,60,19,0,0,0,0,0
1561460826593.75,14,60,18,0,0,0,0,0
1561460826625,14,60,19,0,0,0,0,0
1561460826656.25,15,60,19,0,0,0,0,0
1561460826687.5,15,59,18,0,0,0,0,0
1561460826718.75,14,60,18,0,0,0,0,0
1561460826750,14,60,19,0,0,0,0,0
1561460826781.25,14,60,18,0,0,0,0,0
1561460826812.5,15,60,18,0,0,0,0,0
1561460826843.75,15,59,18,0,0,0,0,0
1561460826875,15,60,18,0,0,0,0,0
1561460826906.25,16,61,18,0,0,0,0,0
1561460826937.5,16,59,18,0,0,0,0,0
1561460826968.75,16,59,18,0,0,0,0,0
1561460827000,16,60,18,0,0,0,0,0
1561460827031.25,16,60,18,0,0,0,0,0
1561460827062.5,16,60,18,0,0,0,0,0
1561460827093.75,16,60,18,0,0,0,0,0
1561460827125,16,59,18,0,0,0,0,0
1561460827156.25,16,60,18,0,0,0,0,0
1561460827187.5,16,60,17,0,0,0,0,0
1561460827218.75,16,60,18,0,0,0,0,0
1561460827250,17,60,17,0,0,0,0,0
1561460827281.25,16,59,18,0,0,0,0,0
1561460827312.5,16,59,18,0,0,0,0,0
1561460827343.75,16,59,18,0,0,0,0,0
1561460827375,16,59,17,0,0,0,0,0
1561460827406.25,17,60,18,0,0,0,0,0
1561460827437.5,17,59,17,0,0,0,0,0
1561460827468.75,17,60,17,0,0,0,0,0
1561460827500,17,60,18,0,0,0,0,0
1561460827531.25,17,59,17,0,0,0,0,0
1561460827562.5,17,60,18,0,0,0,0,0
1561460827593.75,17,60,17,0,0,0,0,0
1561460827625,17,60,17,0,0,0,0,0
1561460827656.25,17,60,17,0,0,0,0,0
1561460827687.5,17,59,17,0,0,0,0,0
1561460827718.75,17,59,17,0,0,0,0,0
1561460827750,17,60,17,0,0,0,0,0
1561460827781.25,17,60,17,0,0,0,0,0
1561460827812.5,17,59,17,0,0,0,0,0
1561460827843.75,17,59,17,0,0,0,0,0
1561460827875,17,60,17,0,0,0,0,0
1561460827906.25,17,59,17,0,0,0,0,0
1561460827937.5,17,59,17,0,0,0,0,0
1561460827968.75,17,59,17,0,0,0,0,0
1561460828000,17,59,17,0,0,0,0,0
1561460828031.25,17,60,17,0,0,0,0,0
1561460828062.5,17,59,17,0,0,0,0,0
1561460828093.75,17,60,17,0,0,0,0,0
1561460828125,17,60,17,0,0,0,0,0
1561460828156.25,17,59,17,0,0,0,0,0
1561460828187.5,17,59,17,0,0,0,0,0
1561460828218.75,17,60,17,0,0,0,0,0
1561460828250,17,60,17,0,0,0,0,0
1561460828281.25,17,60,17,0,0,0,0,0
1561460828312.5,17,59,17,0,0,0,0,0
1561460828343.75,17,60,17,0,0,0,0,0
1561460828375,17,59,17,0,0,0,0,0
1561460828406.25,17,60,17,0,0,0,0,0
1561460828437.5,17,60,17,0,0,0,0,0
1561460828468.75,17,59,17,0,0,0,0,0
1561460828500,17,59,17,0,0,0,0,0
1561460828531.25,17,60,17,0,0,0,0,0
1561460828562.5,17,60,17,0,0,0,0,0
1561460828593.75,17,60,17,0,0,0,0,0
1561460828625,17,59,17,0,0,0,0,0
1561460828656.25,17,59,17,0,0,0,0,0
1561460828687.5,17,60,17,0,0,0,0,0
1561460828718.75,17,60,17,0,0,0,0,0
1561460828750,17,59,17,0,0,0,0,0
1561460828781.25,17,60,17,0,0,0,0,0
1561460828812.5,17,60,17,0,0,0,0,0
1561460828843.75,17,60,17,0,0,0,0,0
1561460828875,17,59,17,0,0,0,0,0
1561460828906.25,17,59,17,0,0,0,0,0
1561460828937.5,17,59,17,0,0,0,0,0
1561460828968.75,17,59,17,0,0,0,0,0
1561460829000,17,60,17,0,0,0,0,0
1561460829031.25,17,59,17,0,0,0,0,0
1561460829062.5,17,59,17,0,0,0,0,0
1561460829093.75,17,59,17,0,0,0,0,0
1561460829125,17,59,17,0,0,0,0,0
1561460829156.25,17,59,17,0,0,0,0,0
1561460829187.5,17,60,17,0,0,0,0,0
1561460829218.75,17,59,17,0,0,0,0,0
1561460829250,17,59,17,0,0,0,0,0
1561460829281.25,17,60,17,0,0,0,0,0
1561460829312.5,17,59,17,0,0,0,0,0
1561460829343.75,17,59,17,0,0,0,0,0
1561460829375,17,59,17,0,0,0,0,0
1561460829406.25,17,59,17,0,0,0,0,0
1561460829437.5,17,59,17,0,0,0,0,0
1561460829468.75,17,59,17,0,0,0,0,0
1561460829500,17,59,17,0,0,0,0,0
1561460829531.25,17,59,17,0,0,0,0,0
1561460829562.5,17,59,17,0,0,0,0,0
1561460829593.75,17,59,17,0,0,0,0,0
1561460829625,17,60,17,0,0,0,0,0
1561460829656.25,17,59,17,0,0,0,0,0
1561460829687.5,17,59,17,0,0,0,0,0
1561460829718.75,17,59,17,0,0,0,0,0
1561460829750,17,59,17,0,0,0,0,0
1561460829781.25,18,59,17,0,0,0,0,0
1561460829812.5,17,59,17,0,0,0,0,0
1561460829843.75,17,59,17,0,0,0,0,0
1561460829875,17,60,17,0,0,0,0,0
1561460829906.25,18,59,17,0,0,0,0,0
1561460829937.5,17,59,17,0,0,0,0,0
1561460829968.75,17,59,17,0,0,0,0,0
1561460830000,17,59,17,0,0,0,0,0
1561460830031.25,17,60,17,0,0,0,0,0
1561460830062.5,17,59,17,0,0,0,0,0
1561460830093.75,17,60,17,0,0,0,0,0
1561460830125,17,59,17,0,0,0,0,0
1561460830156.25,17,59,17,0,0,0,0,0
1561460830187.5,18,59,17,0,0,0,0,0
1561460830218.75,17,59,17,0,0,0,0,0
1561460830250,18,59,17,0,0,0,0,0
1561460830281.25,18,59,17,0,0,0,0,0
1561460830312.5,18,59,17,0,0,0,0,0
1561460830343.75,17,59,17,0,0,0,0,0
1561460830375,18,59,17,0,0,0,0,0
1561460830406.25,17,59,17,0,0,0,0,0
1561460830437.5,17,60,17,0,0,0,0,0
1561460830468.75,18,59,17,0,0,0,0,0
1561460830500,17,59,17,0,0,0,0,0
1561460830531.25,17,60,17,0,0,0,0,0
1561460830562.5,18,59,17,0,0,0,0,0
1561460830593.75,17,59,17,0,0,0,0,0
1561460830625,17,59,17,0,0,0,0,0
1561460830656.25,18,59,17,0,0,0,0,0
1561460830687.5,18,59,17,0,0,0,0,0
1561460830718.75,17,60,17,0,0,0,0,0
1561460830750,18,60,17,0,0,0,0,0
1561460830781.25,18,59,17,0,0,0,0,0
1561460830812.5,17,59,17,0,0,0,0,0
1561460830843.75,17,59,17,0,0,0,0,0
1561460830875,17,59,17,0,0,0,0,0
1561460830906.25,17,59,17,0,0,0,0,0
1561460830937.5,18,59,17,0,0,0,0,0
1561460830968.75,18,59,17,0,0,0,0,0
1561460831000,17,59,17,0,0,0,0,0
1561460831031.25,18,60,17,0,0,0,0,0
1561460831062.5,18,59,17,0,0,0,0,0
1561460831093.75,18,59,17,0,0,0,0,0
1561460831125,18,59,17,0,0,0,0,0
1561460831156.25,18,59,17,0,0,0,0,0
1561460831187.5,18,59,17,0,0,0,0,0
1561460831218.75,17,59,17,0,0,0,0,0
1561460831250,19,60,17,0,0,0,0,0
1561460831281.25,17,60,17,0,0,0,0,0
1561460831312.5,16,58,17,0,0,0,0,0
1561460831343.75,19,61,18,0,0,0,0,0
1561460831375,18,59,17,0,0,0,0,0
1561460831406.25,18,59,17,0,0,0,0,0
1561460831437.5,18,59,17,0,0,0,0,0
1561460831468.75,18,60,18,0,0,0,0,0
1561460831500,17,60,18,0,0,0,0,0
1561460831531.25,17,59,17,0,0,0,0,0
1561460831562.5,17,60,18,0,0,0,0,0
1561460831593.75,16,59,17,0,0,0,0,0
1561460831625,16,59,18,0,0,0,0,0
1561460831656.25,19,61,18,0,0,0,0,0
1561460831687.5,18,60,18,0,0,0,0,0
1561460831718.75,17,59,18,0,0,0,0,0
1561460831750,15,58,17,0,0,0,0,0
1561460831781.25,15,58,16,0,0,0,0,0
1561460831812.5,8,59,14,0,0,0,0,0
1561460831843.75,11,64,25,0,0,0,0,0
1561460831875,39,76,15,0,0,0,0,0
1561460831906.25,11,66,7,0,0,0,0,0
1561460831937.5,-1,58,16,0,0,0,0,0
1561460831968.75,-8,51,9,0,0,0,0,0
1561460832000,-6,69,8,0,0,0,0,0
1561460832031.25,-10,72,15,0,0,0,0,0
1561460832062.5,-14,73,20,0,0,0,0,0
1561460832093.75,-5,86,27,0,0,0,0,0
1561460832125,-10,80,30,0,0,0,0,0
1561460832156.25,-8,73,35,0,0,0,0,0
1561460832187.5,-9,67,49,0,0,0,0,0
1561460832218.75,-23,36,37,0,0,0,0,0
1561460832250,-18,29,39,0,0,0,0,0
1561460832281.25,-7,26,29,0,0,0,0,0
1561460832312.5,-16,26,29,0,0,0,0,0
1561460832343.75,20,35,32,0,0,0,0,0
1561460832375,45,37,29,0,0,0,0,0
1561460832406.25,84,35,50,0,0,0,0,0
1561460832437.5,67,38,42,0,0,0,0,0
1561460832468.75,69,27,31,0,0,0,0,0
1561460832500,62,21,38,0,0,0,0,0
1561460832531.25,57,22,40,0,0,0,0,0
1561460832562.5,46,10,44,0,0,0,0,0
1561460832593.75,48,5,48,0,0,0,0,0
1561460832625,30,2,49,0,0,0,0,0
1561460832656.25,18,2,42,0,0,0,0,0
1561460832687.5,13,19,55,0,0,0,0,0
1561460832718.75,4,19,55,0,0,0,0,0
1561460832750,-10,16,43,0,0,0,0,0
1561460832781.25,-13,21,54,0,0,0,0,0
1561460832812.5,-16,21,55,0,0,0,0,0
1561460832843.75,-19,20,49,0,0,0,0,0
1561460832875,-24,20,56,0,0,0,0,0
1561460832906.25,-23,20,53,0,0,0,0,0
1561460832937.5,-23,26,72,0,0,0,0,0
1561460832968.75,-25,20,57,0,0,0,0,0
1561460833000,-18,16,51,0,0,0,0,0
1561460833031.25,-10,13,54,0,0,0,0,0
1561460833062.5,-11,12,46,0,0,0,0,0
1561460833093.75,-24,15,46,0,0,0,0,0
1561460833125,-27,16,59,0,0,0,0,0
1561460833156.25,-35,12,53,0,0,0,0,0
1561460833187.5,-13,10,61,0,0,0,0,0
1561460833218.75,-21,9,62,0,0,0,0,0
1561460833250,-29,8,53,0,0,0,0,0
1561460833281.25,-30,9,54,0,0,0,0,0
1561460833312.5,-34,19,53,0,0,0,0,0
1561460833343.75,-38,14,49,0,0,0,0,0
1561460833375,-22,16,54,0,0,0,0,0
1561460833406.25,-9,14,59,0,0,0,0,0
1561460833437.5,11,13,61,0,0,0,0,0
1561460833468.75,16,12,63,0,0,0,0,0
1561460833500,5,6,62,0,0,0,0,0
1561460833531.25,2,7,63,0,0,0,0,0
1561460833562.5,-15,10,62,0,0,0,0,0
1561460833593.75,-21,11,60,0,0,0,0,0
1561460833625,-10,10,62,0,0,0,0,0
1561460833656.25,4,10,63,0,0,0,0,0
1561460833687.5,4,14,70,0,0,0,0,0
1561460833718.75,-8,12,68,0,0,0,0,0
1561460833750,-4,10,69,0,0,0,0,0
1561460833781.25,4,4,71,0,0,0,0,0
1561460833812.5,-7,5,63,0,0,0,0,0
1561460833843.75,-7,8,59,0,0,0,0,0
1561460833875,-6,8,62,0,0,0,0,0
1561460833906.25,-10,6,62,0,0,0,0,0
1561460833937.5,-11,5,61,0,0,0,0,0
1561460833968.75,-1,5,62,0,0,0,0,0
1561460834000,-2,7,59,0,0,0,0,0
1561460834031.25,0,7,57,0,0,0,0,0
1561460834062.5,12,7,58,0,0,0,0,0
1561460834093.75,4,6,65,0,0,0,0,0
1561460834125,-4,8,61,0,0,0,0,0
1561460834156.25,3,8,62,0,0,0,0,0
1561460834187.5,14,5,68,0,0,0,0,0
1561460834218.75,3,5,71,0,0,0,0,0
1561460834250,-10,3,60,0,0,0,0,0
1561460834281.25,-1,3,60,0,0,0,0,0
1561460834312.5,18,4,70,0,0,0,0,0
1561460834343.75,6,4,67,0,0,0,0,0
1561460834375,-1,0,60,0,0,0,0,0
1561460834406.25,5,-5,62,0,0,0,0,0
1561460834437.5,-4,-7,61,0,0,0,0,0
1561460834468.75,-9,-7,60,0,0,0,0,0
1561460834500,-13,-10,58,0,0,0,0,0
1561460834531.25,-3,-17,61,0,0,0,0,0
1561460834562.5,-5,-17,63,0,0,0,0,0
1561460834593.75,-11,-15,63,0,0,0,0,0
1561460834625,-8,-16,64,0,0,0,0,0
1561460834656.25,-8,-17,65,0,0,0,0,0
1561460834687.5,-5,-17,63,0,0,0,0,0
1561460834718.75,1,-11,68,0,0,0,0,0
1561460834750,-9,-15,70,0,0,0,0,0
1561460834781.25,-19,-17,62,0,0,0,0,0
1561460834812.5,-12,-17,55,0,0,0,0,0
1561460834843.75,-6,-20,53,0,0,0,0,0
1561460834875,-9,-18,60,0,0,0,0,0
1561460834906.25,-15,-17,56,0,0,0,0,0
1561460834937.5,-10,-20,43,0,0,0,0,0
1561460834968.75,0,-17,48,0,0,0,0,0
1561460835000,-10,-16,44,0,0,0,0,0
1561460835031.25,-16,-16,37,0,0,0,0,0
1561460835062.5,34,-11,68,0,0,0,0,0
1561460835093.75,46,-8,77,0,0,0,0,0
1561460835125,27,-9,65,0,0,0,0,0
1561460835156.25,36,-8,71,0,0,0,0,0
1561460835187.5,31,-5,73,0,0,0,0,0
1561460835218.75,21,-6,69,0,0,0,0,0
1561460835250,13,-3,62,0,0,0,0,0
1561460835281.25,2,1,52,0,0,0,0,0
1561460835312.5,-3,-1,50,0,0,0,0,0
1561460835343.75,9,-8,46,0,0,0,0,0
1561460835375,27,-6,57,0,0,0,0,0
1561460835406.25,3,5,68,0,0,0,0,0
1561460835437.5,9,8,84,0,0,0,0,0
1561460835468.75,20,-2,80,0,0,0,0,0
1561460835500,17,-6,63,0,0,0,0,0
1561460835531.25,22,-6,54,0,0,0,0,0
1561460835562.5,26,-2,59,0,0,0,0,0
1561460835593.75,27,1,63,0,0,0,0,0
1561460835625,22,2,61,0,0,0,0,0
1561460835656.25,24,1,60,0,0,0,0,0
1561460835687.5,25,3,58,0,0,0,0,0
1561460835718.75,25,2,56,0,0,0,0,0
1561460835750,28,1,60,0,0,0,0,0
1561460835781.25,28,0,62,0,0,0,0,0
1561460835812.5,23,-2,59,0,0,0,0,0
1561460835843.75,25,-2,58,0,0,0,0,0
1561460835875,29,2,61,0,0,0,0,0
1561460835906.25,27,2,63,0,0,0,0,0
1561460835937.5,24,3,60,0,0,0,0,0
1561460835968.75,18,8,61,0,0,0,0,0
1561460836000,3,14,59,0,0,0,0,0
1561460836031.25,6,4,47,0,0,0,0,0
1561460836062.5,-13,-19,32,0,0,0,0,0
1561460836093.75,-4,8,45,0,0,0,0,0
1561460836125,106,19,65,0,0,0,0,0
1561460836156.25,65,-4,52,0,0,0,0,0
1561460836187.5,36,-2,41,0,0,0,0,0
1561460836218.75,52,-7,21,0,0,0,0,0
1561460836250,68,-7,21,0,0,0,0,0
1561460836281.25,52,-4,37,0,0,0,0,0
1561460836312.5,48,-3,39,0,0,0,0,0
1561460836343.75,48,-1,42,0,0,0,0,0
1561460836375,47,0,42,0,0,0,0,0
1561460836406.25,47,-3,40,0,0,0,0,0
1561460836437.5,46,-1,39,0,0,0,0,0
1561460836468.75,51,-2,36,0,0,0,0,0
1561460836500,55,-2,36,0,0,0,0,0
1561460836531.25,53,-2,34,0,0,0,0,0
1561460836562.5,53,-2,34,0,0,0,0,0
1561460836593.75,52,-3,35,0,0,0,0,0
1561460836625,51,-2,36,0,0,0,0,0
1561460836656.25,51,-1,36,0,0,0,0,0
1561460836687.5,52,-2,34,0,0,0,0,0
1561460836718.75,52,-3,34,0,0,0,0,0
1561460836750,53,-2,36,0,0,0,0,0
1561460836781.25,52,-1,36,0,0,0,0,0
1561460836812.5,54,-1,34,0,0,0,0,0
1561460836843.75,54,-4,35,0,0,0,0,0
1561460836875,53,-1,36,0,0,0,0,0
1561460836906.25,47,0,41,0,0,0,0,0
1561460836937.5,47,1,42,0,0,0,0,0
1561460836968.75,47,0,42,0,0,0,0,0
1561460837000,47,2,43,0,0,0,0,0
1561460837031.25,46,0,41,0,0,0,0,0
1561460837062.5,46,0,41,0,0,0,0,0
1561460837093.75,48,0,42,0,0,0,0,0
1561460837125,47,0,42,0,0,0,0,0
1561460837156.25,47,0,41,0,0,0,0,0
1561460837187.5,47,0,42,0,0,0,0,0
1561460837218.75,47,1,42,0,0,0,0,0
1561460837250,47,1,41,0,0,0,0,0
1561460837281.25,47,1,42,0,0,0,0,0
1561460837312.5,45,1,43,0,0,0,0,0
1561460837343.75,44,1,43,0,0,0,0,0
1561460837375,47,1,43,0,0,0,0,0
1561460837406.25,47,1,42,0,0,0,0,0
1561460837437.5,46,1,43,0,0,0,0,0
1561460837468.75,45,2,43,0,0,0,0,0
1561460837500,47,1,43,0,0,0,0,0
1561460837531.25,48,1,43,0,0,0,0,0
1561460837562.5,47,1,43,0,0,0,0,0
1561460837593.75,46,2,43,0,0,0,0,0
1561460837625,45,2,44,0,0,0,0,0
1561460837656.25,45,2,44,0,0,0,0,0
1561460837687.5,45,1,44,0,0,0,0,0
1561460837718.75,45,1,43,0,0,0,0,0
1561460837750,44,1,43,0,0,0,0,0
1561460837781.25,47,1,43,0,0,0,0,0
1561460837812.5,47,2,43,0,0,0,0,0
1561460837843.75,44,3,44,0,0,0,0,0
1561460837875,44,4,45,0,0,0,0,0
1561460837906.25,45,2,45,0,0,0,0,0
1561460837937.5,45,1,44,0,0,0,0,0
1561460837968.75,46,1,44,0,0,0,0,0
1561460838000,45,2,44,0,0,0,0,0
1561460838031.25,45,2,43,0,0,0,0,0
1561460838062.5,45,1,43,0,0,0,0,0
1561460838093.75,45,1,43,0,0,0,0,0
1561460838125,45,1,43,0,0,0,0,0
1561460838156.25,45,1,43,0,0,0,0,0
1561460838187.5,47,2,44,0,0,0,0,0
1561460838218.75,47,1,44,0,0,0,0,0
1561460838250,45,2,44,0,0,0,0,0
1561460838281.25,45,2,44,0,0,0,0,0
1561460838312.5,46,2,44,0,0,0,0,0
1561460838343.75,45,1,44,0,0,0,0,0
1561460838375,45,1,44,0,0,0,0,0
1561460838406.25,46,1,44,0,0,0,0,0
1561460838437.5,45,2,43,0,0,0,0,0
1561460838468.75,44,2,43,0,0,0,0,0
1561460838500,47,2,43,0,0,0,0,0
1561460838531.25,47,0,43,0,0,0,0,0
1561460838562.5,48,0,43,0,0,0,0,0
1561460838593.75,47,1,42,0,0,0,0,0
1561460838625,46,1,42,0,0,0,0,0
1561460838656.25,47,1,43,0,0,0,0,0
1561460838687.5,47,1,42,0,0,0,0,0
1561460838718.75,46,1,42,0,0,0,0,0
1561460838750,46,0,42,0,0,0,0,0
1561460838781.25,46,0,42,0,0,0,0,0
1561460838812.5,46,1,42,0,0,0,0,0
1561460838843.75,46,2,43,0,0,0,0,0
1561460838875,46,2,42,0,0,0,0,0
1561460838906.25,45,0,41,0,0,0,0,0
1561460838937.5,47,1,42,0,0,0,0,0
1561460838968.75,48,1,43,0,0,0,0,0
1561460839000,45,1,41,0,0,0,0,0
1561460839031.25,51,2,43,0,0,0,0,0
1561460839062.5,59,-1,50,0,0,0,0,0
1561460839093.75,59,-3,55,0,0,0,0,0
1561460839125,59,-7,62,0,0,0,0,0
1561460839156.25,62,-19,61,0,0,0,0,0
1561460839187.5,52,-43,59,0,0,0,0,0
1561460839218.75,43,-50,51,0,0,0,0,0
1561460839250,38,-57,22,0,0,0,0,0
1561460839281.25,36,-51,21,0,0,0,0,0
1561460839312.5,21,-37,27,0,0,0,0,0
1561460839343.75,1,-29,19,0,0,0,0,0
1561460839375,2,-21,16,0,0,0,0,0
1561460839406.25,11,-2,11,0,0,0,0,0
1561460839437.5,14,2,4,0,0,0,0,0
1561460839468.75,32,18,1,0,0,0,0,0
1561460839500,35,26,1,0,0,0,0,0
1561460839531.25,61,37,21,0,0,0,0,0
1561460839562.5,99,19,45,0,0,0,0,0
1561460839593.75,79,24,57,0,0,0,0,0
1561460839625,90,21,62,0,0,0,0,0
1561460839656.25,86,16,63,0,0,0,0,0
1561460839687.5,35,19,39,0,0,0,0,0
1561460839718.75,37,22,43,0,0,0,0,0
1561460839750,34,8,38,0,0,0,0,0
1561460839781.25,47,7,37,0,0,0,0,0
1561460839812.5,57,11,31,0,0,0,0,0
1561460839843.75,66,17,33,0,0,0,0,0
1561460839875,72,17,39,0,0,0,0,0
1561460839906.25,62,16,37,0,0,0,0,0
1561460839937.5,49,18,33,0,0,0,0,0
1561460839968.75,46,19,35,0,0,0,0,0
1561460840000,48,21,33,0,0,0,0,0
1561460840031.25,62,21,41,0,0,0,0,0
1561460840062.5,64,9,49,0,0,0,0,0
1561460840093.75,83,11,67,0,0,0,0,0
1561460840125,69,29,49,0,0,0,0,0
1561460840156.25,37,37,31,0,0,0,0,0
1561460840187.5,36,27,34,0,0,0,0,0
1561460840218.75,25,18,34,0,0,0,0,0
1561460840250,29,11,36,0,0,0,0,0
1561460840281.25,49,-4,43,0,0,0,0,0
1561460840312.5,52,0,44,0,0,0,0,0
1561460840343.75,35,3,36,0,0,0,0,0
1561460840375,34,1,36,0,0,0,0,0
1561460840406.25,34,-9,31,0,0,0,0,0
1561460840437.5,32,-11,28,0,0,0,0,0
1561460840468.75,22,-3,29,0,0,0,0,0
1561460840500,40,5,43,0,0,0,0,0
1561460840531.25,46,2,50,0,0,0,0,0
1561460840562.5,33,2,56,0,0,0,0,0
1561460840593.75,37,11,63,0,0,0,0,0
1561460840625,37,9,68,0,0,0,0,0
1561460840656.25,31,6,68,0,0,0,0,0
1561460840687.5,12,17,48,0,0,0,0,0
1561460840718.75,31,21,44,0,0,0,0,0
1561460840750,106,49,79,0,0,0,0,0
1561460840781.25,38,40,59,0,0,0,0,0
1561460840812.5,34,17,48,0,0,0,0,0
1561460840843.75,56,-8,57,0,0,0,0,0
1561460840875,55,-1,49,0,0,0,0,0
1561460840906.25,61,3,54,0,0,0,0,0
1561460840937.5,87,0,52,0,0,0,0,0
1561460840968.75,94,30,50,0,0,0,0,0
1561460841000,58,34,42,0,0,0,0,0
1561460841031.25,-21,30,42,0,0,0,0,0
1561460841062.5,-34,26,42,0,0,0,0,0
1561460841093.75,-22,23,36,0,0,0,0,0
1561460841125,-14,22,35,0,0,0,0,0
1561460841156.25,-16,23,30,0,0,0,0,0
1561460841187.5,-6,20,34,0,0,0,0,0
1561460841218.75,14,13,37,0,0,0,0,0
1561460841250,12,7,36,0,0,0,0,0
1561460841281.25,17,-12,41,0,0,0,0,0
1561460841312.5,47,-34,37,0,0,0,0,0
1561460841343.75,61,-37,31,0,0,0,0,0
1561460841375,84,-34,12,0,0,0,0,0
1561460841406.25,101,-43,1,0,0,0,0,0
1561460841437.5,102,-40,4,0,0,0,0,0
1561460841468.75,76,-25,23,0,0,0,0,0
1561460841500,30,-13,49,0,0,0,0,0
1561460841531.25,30,-4,47,0,0,0,0,0
1561460841562.5,55,30,46,0,0,0,0,0
1561460841593.75,59,49,33,0,0,0,0,0
1561460841625,77,34,26,0,0,0,0,0
1561460841656.25,77,18,23,0,0,0,0,0
1561460841687.5,69,0,18,0,0,0,0,0
1561460841718.75,66,-1,13,0,0,0,0,0
1561460841750,58,1,5,0,0,0,0,0
1561460841781.25,65,13,16,0,0,0,0,0
1561460841812.5,66,13,18,0,0,0,0,0
1561460841843.75,60,14,25,0,0,0,0,0
1561460841875,58,18,36,0,0,0,0,0
1561460841906.25,49,22,31,0,0,0,0,0
1561460841937.5,57,21,31,0,0,0,0,0
1561460841968.75,63,18,25,0,0,0,0,0
1561460842000,59,9,21,0,0,0,0,0
1561460842031.25,60,9,24,0,0,0,0,0
1561460842062.5,57,9,23,0,0,0,0,0
1561460842093.75,56,6,27,0,0,0,0,0
1561460842125,52,9,34,0,0,0,0,0
1561460842156.25,52,13,37,0,0,0,0,0
1561460842187.5,53,16,45,0,0,0,0,0
1561460842218.75,48,16,42,0,0,0,0,0
1561460842250,52,14,42,0,0,0,0,0
1561460842281.25,53,15,39,0,0,0,0,0
1561460842312.5,49,11,34,0,0,0,0,0
1561460842343.75,53,10,38,0,0,0,0,0
1561460842375,53,3,34,0,0,0,0,0
1561460842406.25,53,1,33,0,0,0,0,0
1561460842437.5,46,-3,35,0,0,0,0,0
1561460842468.75,45,-3,38,0,0,0,0,0
1561460842500,46,-2,40,0,0,0,0,0
1561460842531.25,47,-2,39,0,0,0,0,0
1561460842562.5,48,-1,42,0,0,0,0,0
1561460842593.75,46,0,45,0,0,0,0,0
1561460842625,43,1,43,0,0,0,0,0
1561460842656.25,40,-1,44,0,0,0,0,0
1561460842687.5,37,-4,46,0,0,0,0,0
1561460842718.75,31,-6,47,0,0,0,0,0
1561460842750,31,-5,47,0,0,0,0,0
1561460842781.25,33,0,46,0,0,0,0,0
1561460842812.5,32,-2,43,0,0,0,0,0
1561460842843.75,37,-11,46,0,0,0,0,0
1561460842875,41,-18,49,0,0,0,0,0
1561460842906.25,34,-16,40,0,0,0,0,0
1561460842937.5,50,-2,48,0,0,0,0,0
1561460842968.75,49,6,49,0,0,0,0,0
1561460843000,45,16,46,0,0,0,0,0
1561460843031.25,44,14,46,0,0,0,0,0
1561460843062.5,39,13,49,0,0,0,0,0
1561460843093.75,36,13,48,0,0,0,0,0
1561460843125,37,15,49,0,0,0,0,0
1561460843156.25,36,17,50,0,0,0,0,0
1561460843187.5,36,19,51,0,0,0,0,0
1561460843218.75,36,21,51,0,0,0,0,0
1561460843250,35,22,55,0,0,0,0,0
1561460843281.25,34,24,57,0,0,0,0,0
1561460843312.5,36,25,58,0,0,0,0,0
1561460843343.75,39,19,53,0,0,0,0,0
1561460843375,37,18,50,0,0,0,0,0
1561460843406.25,39,15,46,0,0,0,0,0
1561460843437.5,40,14,44,0,0,0,0,0
1561460843468.75,43,13,45,0,0,0,0,0
1561460843500,42,13,45,0,0,0,0,0
1561460843531.25,40,14,46,0,0,0,0,0
1561460843562.5,41,14,48,0,0,0,0,0
1561460843593.75,40,13,47,0,0,0,0,0
1561460843625,39,12,46,0,0,0,0,0
1561460843656.25,40,11,45,0,0,0,0,0
1561460843687.5,41,11,46,0,0,0,0,0
1561460843718.75,40,12,45,0,0,0,0,0
1561460843750,42,12,49,0,0,0,0,0
1561460843781.25,41,13,49,0,0,0,0,0
1561460843812.5,39,15,48,0,0,0,0,0
1561460843843.75,38,15,49,0,0,0,0,0
1561460843875,40,12,48,0,0,0,0,0
1561460843906.25,40,11,47,0,0,0,0,0
1561460843937.5,39,12,45,0,0,0,0,0
1561460843968.75,39,13,46,0,0,0,0,0
1561460844000,38,15,48,0,0,0,0,0
1561460844031.25,38,16,52,0,0,0,0,0
1561460844062.5,39,15,54,0,0,0,0,0
1561460844093.75,35,14,50,0,0,0,0,0
1561460844125,39,14,51,0,0,0,0,0
1561460844156.25,37,12,47,0,0,0,0,0
1561460844187.5,38,12,46,0,0,0,0,0
1561460844218.75,39,12,46,0,0,0,0,0
1561460844250,40,13,46,0,0,0,0,0
1561460844281.25,38,14,48,0,0,0,0,0
1561460844312.5,36,15,51,0,0,0,0,0
1561460844343.75,35,15,53,0,0,0,0,0
1561460844375,35,14,53,0,0,0,0,0
1561460844406.25,36,13,53,0,0,0,0,0
1561460844437.5,34,13,48,0,0,0,0,0
1561460844468.75,41,14,48,0,0,0,0,0
1561460844500,42,13,46,0,0,0,0,0
1561460844531.25,43,11,44,0,0,0,0,0
1561460844562.5,46,11,45,0,0,0,0,0
1561460844593.75,46,11,46,0,0,0,0,0
1561460844625,44,11,46,0,0,0,0,0
1561460844656.25,43,10,46,0,0,0,0,0
1561460844687.5,43,11,48,0,0,0,0,0
1561460844718.75,41,11,47,0,0,0,0,0
1561460844750,43,9,47,0,0,0,0,0
1561460844781.25,43,8,46,0,0,0,0,0
1561460844812.5,43,7,44,0,0,0,0,0
1561460844843.75,43,7,44,0,0,0,0,0
1561460844875,44,5,43,0,0,0,0,0
1561460844906.25,44,5,43,0,0,0,0,0
1561460844937.5,45,4,44,0,0,0,0,0
1561460844968.75,45,5,44,0,0,0,0,0
1561460845000,43,5,44,0,0,0,0,0
1561460845031.25,42,7,46,0,0,0,0,0
1561460845062.5,41,6,46,0,0,0,0,0
1561460845093.75,40,5,44,0,0,0,0,0
1561460845125,43,5,45,0,0,0,0,0
1561460845156.25,45,5,46,0,0,0,0,0
1561460845187.5,45,5,45,0,0,0,0,0
1561460845218.75,46,6,46,0,0,0,0,0
1561460845250,45,5,46,0,0,0,0,0
1561460845281.25,44,5,45,0,0,0,0,0
1561460845312.5,44,5,45,0,0,0,0,0
1561460845343.75,44,5,46,0,0,0,0,0
1561460845375,44,4,45,0,0,0,0,0
1561460845406.25,43,4,45,0,0,0,0,0
1561460845437.5,46,3,45,0,0,0,0,0
1561460845468.75,46,3,44,0,0,0,0,0
1561460845500,45,2,44,0,0,0,0,0
1561460845531.25,45,2,43,0,0,0,0,0
1561460845562.5,44,2,44,0,0,0,0,0
1561460845593.75,44,2,43,0,0,0,0,0
1561460845625,46,2,44,0,0,0,0,0
1561460845656.25,46,2,45,0,0,0,0,0
1561460845687.5,45,2,44,0,0,0,0,0
1561460845718.75,46,1,42,0,0,0,0,0
1561460845750,47,1,42,0,0,0,0,0
1561460845781.25,47,1,42,0,0,0,0,0
1561460845812.5,47,0,42,0,0,0,0,0
1561460845843.75,47,0,42,0,0,0,0,0
1561460845875,47,0,42,0,0,0,0,0
1561460845906.25,48,-1,42,0,0,0,0,0
1561460845937.5,47,0,42,0,0,0,0,0
1561460845968.75,46,-1,41,0,0,0,0,0
1561460846000,47,0,42,0,0,0,0,0
1561460846031.25,46,0,43,0,0,0,0,0
1561460846062.5,45,-1,41,0,0,0,0,0
1561460846093.75,47,-1,37,0,0,0,0,0
1561460846125,53,-1,38,0,0,0,0,0
1561460846156.25,54,-1,40,0,0,0,0,0
1561460846187.5,49,-1,38,0,0,0,0,0
1561460846218.75,47,-1,36,0,0,0,0,0
1561460846250,51,-2,38,0,0,0,0,0
1561460846281.25,52,-3,37,0,0,0,0,0
1561460846312.5,49,-4,34,0,0,0,0,0
1561460846343.75,51,-4,34,0,0,0,0,0
1561460846375,52,-4,34,0,0,0,0,0
1561460846406.25,53,-4,36,0,0,0,0,0
1561460846437.5,52,-3,36,0,0,0,0,0
1561460846468.75,51,-4,37,0,0,0,0,0
1561460846500,51,-4,37,0,0,0,0,0
1561460846531.25,51,-4,36,0,0,0,0,0
1561460846562.5,53,-5,37,0,0,0,0,0
1561460846593.75,45,-4,35,0,0,0,0,0
1561460846625,48,-4,35,0,0,0,0,0
1561460846656.25,55,-6,34,0,0,0,0,0
1561460846687.5,50,-5,33,0,0,0,0,0
1561460846718.75,53,-6,34,0,0,0,0,0
1561460846750,55,-7,32,0,0,0,0,0
1561460846781.25,54,-7,28,0,0,0,0,0
1561460846812.5,57,-8,28,0,0,0,0,0
1561460846843.75,56,-8,24,0,0,0,0,0
1561460846875,53,-8,23,0,0,0,0,0
1561460846906.25,58,-10,24,0,0,0,0,0
1561460846937.5,59,-10,19,0,0,0,0,0
1561460846968.75,60,-10,16,0,0,0,0,0
1561460847000,56,-10,12,0,0,0,0,0
1561460847031.25,59,-12,11,0,0,0,0,0
1561460847062.5,62,-14,4,0,0,0,0,0
1561460847093.75,63,-16,1,0,0,0,0,0
1561460847125,64,-16,-4,0,0,0,0,0
1561460847156.25,61,-17,-6,0,0,0,0,0
1561460847187.5,60,-19,-9,0,0,0,0,0
1561460847218.75,60,-19,-10,0,0,0,0,0
1561460847250,57,-19,-10,0,0,0,0,0
1561460847281.25,59,-19,-8,0,0,0,0,0
1561460847312.5,61,-20,-6,0,0,0,0,0
1561460847343.75,59,-20,-3,0,0,0,0,0
1561460847375,49,-19,-3,0,0,0,0,0
1561460847406.25,51,-19,-2,0,0,0,0,0
1561460847437.5,61,-20,-2,0,0,0,0,0
1561460847468.75,69,-24,-3,0,0,0,0,0
1561460847500,56,-23,-4,0,0,0,0,0
1561460847531.25,55,-23,2,0,0,0,0,0
1561460847562.5,60,-21,7,0,0,0,0,0
1561460847593.75,56,-18,13,0,0,0,0,0
1561460847625,51,-18,13,0,0,0,0,0
1561460847656.25,55,-20,13,0,0,0,0,0
1561460847687.5,55,-20,12,0,0,0,0,0
1561460847718.75,56,-20,11,0,0,0,0,0
1561460847750,59,-20,12,0,0,0,0,0
1561460847781.25,58,-20,13,0,0,0,0,0
1561460847812.5,56,-19,14,0,0,0,0,0
1561460847843.75,57,-18,15,0,0,0,0,0
1561460847875,58,-14,21,0,0,0,0,0
1561460847906.25,55,-12,22,0,0,0,0,0
1561460847937.5,59,-13,22,0,0,0,0,0
1561460847968.75,59,-14,21,0,0,0,0,0
1561460848000,57,-17,22,0,0,0,0,0
1561460848031.25,55,-16,23,0,0,0,0,0
1561460848062.5,51,-16,22,0,0,0,0,0
1561460848093.75,55,-14,21,0,0,0,0,0
1561460848125,59,-13,23,0,0,0,0,0
1561460848156.25,56,-12,25,0,0,0,0,0
1561460848187.5,57,-13,27,0,0,0,0,0
1561460848218.75,58,-12,29,0,0,0,0,0
1561460848250,58,-11,28,0,0,0,0,0
1561460848281.25,64,-11,30,0,0,0,0,0
1561460848312.5,57,-14,28,0,0,0,0,0
1561460848343.75,51,-17,26,0,0,0,0,0
1561460848375,51,-18,26,0,0,0,0,0
1561460848406.25,49,-19,25,0,0,0,0,0
1561460848437.5,48,-19,25,0,0,0,0,0
1561460848468.75,47,-19,25,0,0,0,0,0
1561460848500,47,-18,25,0,0,0,0,0
1561460848531.25,48,-19,28,0,0,0,0,0
1561460848562.5,47,-17,30,0,0,0,0,0
1561460848593.75,48,-17,31,0,0,0,0,0
1561460848625,53,-13,33,0,0,0,0,0
1561460848656.25,55,-14,31,0,0,0,0,0
1561460848687.5,53,-17,26,0,0,0,0,0
1561460848718.75,57,-15,29,0,0,0,0,0
1561460848750,60,-12,24,0,0,0,0,0
1561460848781.25,56,-15,17,0,0,0,0,0
1561460848812.5,62,-19,3,0,0,0,0,0
1561460848843.75,59,-20,-7,0,0,0,0,0
1561460848875,59,-24,-13,0,0,0,0,0
1561460848906.25,69,-25,-10,0,0,0,0,0
1561460848937.5,60,-22,-15,0,0,0,0,0
1561460848968.75,52,-21,-23,0,0,0,0,0
1561460849000,58,-22,-21,0,0,0,0,0
1561460849031.25,58,-23,-14,0,0,0,0,0
1561460849062.5,57,-24,-16,0,0,0,0,0
1561460849093.75,50,-25,-26,0,0,0,0,0
1561460849125,47,-26,-24,0,0,0,0,0
1561460849156.25,47,-27,-21,0,0,0,0,0
1561460849187.5,49,-27,-23,0,0,0,0,0
1561460849218.75,45,-28,-25,0,0,0,0,0
1561460849250,44,-29,-23,0,0,0,0,0
1561460849281.25,46,-27,-19,0,0,0,0,0
1561460849312.5,48,-26,-19,0,0,0,0,0
1561460849343.75,52,-26,-17,0,0,0,0,0
1561460849375,42,-28,-28,0,0,0,0,0
1561460849406.25,43,-27,-25,0,0,0,0,0
1561460849437.5,51,-27,-24,0,0,0,0,0
1561460849468.75,52,-27,-28,0,0,0,0,0
1561460849500,48,-26,-32,0,0,0,0,0
1561460849531.25,51,-25,-31,0,0,0,0,0
1561460849562.5,47,-24,-30,0,0,0,0,0
1561460849593.75,44,-25,-36,0,0,0,0,0
1561460849625,39,-23,-34,0,0,0,0,0
1561460849656.25,41,-24,-36,0,0,0,0,0
1561460849687.5,38,-23,-41,0,0,0,0,0
1561460849718.75,35,-20,-47,0,0,0,0,0
1561460849750,40,-21,-51,0,0,0,0,0
1561460849781.25,33,-25,-50,0,0,0,0,0
1561460849812.5,38,-27,-48,0,0,0,0,0
1561460849843.75,33,-24,-43,0,0,0,0,0
1561460849875,34,-26,-42,0,0,0,0,0
1561460849906.25,41,-28,-38,0,0,0,0,0
1561460849937.5,47,-25,-33,0,0,0,0,0
1561460849968.75,30,-18,-41,0,0,0,0,0
1561460850000,35,-21,-47,0,0,0,0,0
1561460850031.25,38,-25,-48,0,0,0,0,0
1561460850062.5,33,-22,-46,0,0,0,0,0
1561460850093.75,35,-25,-45,0,0,0,0,0
1561460850125,36,-24,-42,0,0,0,0,0
1561460850156.25,29,-24,-44,0,0,0,0,0
1561460850187.5,39,-24,-47,0,0,0,0,0
1561460850218.75,35,-24,-51,0,0,0,0,0
1561460850250,37,-21,-47,0,0,0,0,0
1561460850281.25,34,-23,-46,0,0,0,0,0
1561460850312.5,32,-23,-42,0,0,0,0,0
1561460850343.75,27,-24,-46,0,0,0,0,0
1561460850375,34,-22,-47,0,0,0,0,0
1561460850406.25,33,-22,-47,0,0,0,0,0
1561460850437.5,31,-22,-48,0,0,0,0,0
1561460850468.75,34,-21,-50,0,0,0,0,0
1561460850500,32,-21,-50,0,0,0,0,0
1561460850531.25,32,-21,-51,0,0,0,0,0
1561460850562.5,28,-23,-50,0,0,0,0,0
1561460850593.75,23,-23,-52,0,0,0,0,0
1561460850625,33,-22,-47,0,0,0,0,0
1561460850656.25,32,-18,-43,0,0,0,0,0
1561460850687.5,31,-17,-46,0,0,0,0,0
1561460850718.75,28,-20,-50,0,0,0,0,0
1561460850750,28,-20,-49,0,0,0,0,0
1561460850781.25,29,-21,-46,0,0,0,0,0
1561460850812.5,34,-22,-45,0,0,0,0,0
1561460850843.75,27,-20,-24,0,0,0,0,0
1561460850875,14,-20,-39,0,0,0,0,0
1561460850906.25,32,-19,-77,0,0,0,0,0
1561460850937.5,51,-14,-60,0,0,0,0,0
1561460850968.75,38,-7,-38,0,0,0,0,0
1561460851000,32,-14,-72,0,0,0,0,0
1561460851031.25,39,-11,-62,0,0,0,0,0
1561460851062.5,49,-13,-47,0,0,0,0,0
1561460851093.75,43,-13,-50,0,0,0,0,0
1561460851125,24,-11,-56,0,0,0,0,0
1561460851156.25,26,-11,-56,0,0,0,0,0
1561460851187.5,34,-7,-44,0,0,0,0,0
1561460851218.75,33,-9,-43,0,0,0,0,0
1561460851250,40,-17,-46,0,0,0,0,0
1561460851281.25,36,-20,-50,0,0,0,0,0
1561460851312.5,25,-20,-54,0,0,0,0,0
1561460851343.75,29,-17,-53,0,0,0,0,0
1561460851375,28,-16,-56,0,0,0,0,0
1561460851406.25,28,-16,-52,0,0,0,0,0
1561460851437.5,28,-17,-49,0,0,0,0,0
1561460851468.75,23,-17,-43,0,0,0,0,0
1561460851500,28,-18,-47,0,0,0,0,0
1561460851531.25,26,-21,-55,0,0,0,0,0
1561460851562.5,26,-20,-53,0,0,0,0,0
1561460851593.75,31,-21,-52,0,0,0,0,0
1561460851625,26,-23,-54,0,0,0,0,0
1561460851656.25,27,-21,-51,0,0,0,0,0
1561460851687.5,31,-18,-46,0,0,0,0,0
1561460851718.75,23,-19,-55,0,0,0,0,0
1561460851750,26,-19,-51,0,0,0,0,0
1561460851781.25,27,-18,-44,0,0,0,0,0
1561460851812.5,41,-21,-50,0,0,0,0,0
1561460851843.75,24,-24,-47,0,0,0,0,0
1561460851875,38,-20,-45,0,0,0,0,0
1561460851906.25,37,-20,-46,0,0,0,0,0
1561460851937.5,27,-21,-53,0,0,0,0,0
1561460851968.75,31,-20,-52,0,0,0,0,0
1561460852000,36,-18,-46,0,0,0,0,0
1561460852031.25,40,-18,-45,0,0,0,0,0
1561460852062.5,28,-19,-49,0,0,0,0,0
1561460852093.75,33,-19,-46,0,0,0,0,0
1561460852125,44,-18,-45,0,0,0,0,0
1561460852156.25,37,-19,-45,0,0,0,0,0
1561460852187.5,36,-17,-45,0,0,0,0,0
1561460852218.75,40,-17,-45,0,0,0,0,0
1561460852250,36,-17,-45,0,0,0,0,0
1561460852281.25,35,-16,-45,0,0,0,0,0
1561460852312.5,37,-16,-44,0,0,0,0,0
1561460852343.75,37,-17,-47,0,0,0,0,0
1561460852375,34,-17,-45,0,0,0,0,0
1561460852406.25,42,-17,-47,0,0,0,0,0
1561460852437.5,46,-17,-45,0,0,0,0,0
1561460852468.75,34,-15,-46,0,0,0,0,0
1561460852500,36,-16,-48,0,0,0,0,0
1561460852531.25,61,-10,-48,0,0,0,0,0
1561460852562.5,24,-19,-52,0,0,0,0,0
1561460852593.75,41,-18,-47,0,0,0,0,0
1561460852625,32,-17,-45,0,0,0,0,0
1561460852656.25,33,-17,-44,0,0,0,0,0
1561460852687.5,43,-17,-42,0,0,0,0,0
1561460852718.75,43,-15,-38,0,0,0,0,0
1561460852750,37,-15,-48,0,0,0,0,0
1561460852781.25,39,-17,-52,0,0,0,0,0
1561460852812.5,34,-19,-49,0,0,0,0,0
1561460852843.75,43,-18,-46,0,0,0,0,0
1561460852875,40,-17,-43,0,0,0,0,0
1561460852906.25,35,-18,-45,0,0,0,0,0
1561460852937.5,37,-18,-47,0,0,0,0,0
1561460852968.75,36,-17,-45,0,0,0,0,0
1561460853000,35,-18,-42,0,0,0,0,0
1561460853031.25,34,-19,-38,0,0,0,0,0
1561460853062.5,34,-19,-44,0,0,0,0,0
1561460853093.75,42,-15,-34,0,0,0,0,0
1561460853125,46,-14,-33,0,0,0,0,0
1561460853156.25,35,-12,-52,0,0,0,0,0
1561460853187.5,44,-13,-54,0,0,0,0,0
1561460853218.75,49,-14,-52,0,0,0,0,0
1561460853250,35,-14,-52,0,0,0,0,0
1561460853281.25,44,-12,-43,0,0,0,0,0
1561460853312.5,46,-12,-42,0,0,0,0,0
1561460853343.75,47,-10,-39,0,0,0,0,0
1561460853375,35,-9,-45,0,0,0,0,0
1561460853406.25,42,-10,-45,0,0,0,0,0
1561460853437.5,47,-12,-41,0,0,0,0,0
1561460853468.75,42,-12,-41,0,0,0,0,0
1561460853500,41,-12,-42,0,0,0,0,0
1561460853531.25,47,-12,-41,0,0,0,0,0
1561460853562.5,55,-13,-32,0,0,0,0,0
1561460853593.75,46,-12,-39,0,0,0,0,0
1561460853625,39,-11,-43,0,0,0,0,0
1561460853656.25,43,-14,-45,0,0,0,0,0
1561460853687.5,42,-12,-41,0,0,0,0,0
1561460853718.75,38,-11,-40,0,0,0,0,0
1561460853750,48,-10,-41,0,0,0,0,0
1561460853781.25,39,-9,-43,0,0,0,0,0
1561460853812.5,40,-8,-42,0,0,0,0,0
1561460853843.75,48,-10,-50,0,0,0,0,0
1561460853875,44,-11,-58,0,0,0,0,0
1561460853906.25,31,-11,-41,0,0,0,0,0
1561460853937.5,43,-11,-39,0,0,0,0,0
1561460853968.75,36,-9,-52,0,0,0,0,0
1561460854000,37,-10,-43,0,0,0,0,0
1561460854031.25,41,-8,-51,0,0,0,0,0
1561460854062.5,41,-10,-49,0,0,0,0,0
1561460854093.75,36,-8,-42,0,0,0,0,0
1561460854125,35,-9,-46,0,0,0,0,0
1561460854156.25,46,-8,-45,0,0,0,0,0
1561460854187.5,38,-8,-44,0,0,0,0,0
1561460854218.75,39,-8,-46,0,0,0,0,0
1561460854250,42,-8,-44,0,0,0,0,0
1561460854281.25,41,-7,-43,0,0,0,0,0
1561460854312.5,39,-7,-44,0,0,0,0,0
1561460854343.75,42,-7,-44,0,0,0,0,0
1561460854375,42,-7,-43,0,0,0,0,0
1561460854406.25,37,-6,-40,0,0,0,0,0
1561460854437.5,42,-5,-43,0,0,0,0,0
1561460854468.75,42,-6,-44,0,0,0,0,0
1561460854500,46,-6,-45,0,0,0,0,0
1561460854531.25,49,-5,-45,0,0,0,0,0
1561460854562.5,41,-5,-43,0,0,0,0,0
1561460854593.75,47,-4,-45,0,0,0,0,0
1561460854625,47,-3,-43,0,0,0,0,0
1561460854656.25,41,-3,-42,0,0,0,0,0
1561460854687.5,41,-3,-44,0,0,0,0,0
1561460854718.75,48,-3,-41,0,0,0,0,0
1561460854750,46,-3,-40,0,0,0,0,0
1561460854781.25,47,-3,-39,0,0,0,0,0
1561460854812.5,46,-3,-40,0,0,0,0,0
1561460854843.75,48,-3,-40,0,0,0,0,0
1561460854875,50,-4,-39,0,0,0,0,0
1561460854906.25,44,-3,-39,0,0,0,0,0
1561460854937.5,52,-13,-24,0,0,0,0,0
1561460854968.75,35,-15,-42,0,0,0,0,0
1561460855000,51,-5,-35,0,0,0,0,0
1561460855031.25,55,-3,-32,0,0,0,0,0
1561460855062.5,44,-4,-41,0,0,0,0,0
1561460855093.75,47,-4,-41,0,0,0,0,0
1561460855125,46,-3,-37,0,0,0,0,0
1561460855156.25,43,-3,-37,0,0,0,0,0
1561460855187.5,45,-4,-45,0,0,0,0,0
1561460855218.75,46,-4,-45,0,0,0,0,0
1561460855250,48,-3,-32,0,0,0,0,0
1561460855281.25,46,-2,-39,0,0,0,0,0
1561460855312.5,49,-3,-45,0,0,0,0,0
1561460855343.75,47,-2,-43,0,0,0,0,0
1561460855375,53,0,-48,0,0,0,0,0
1561460855406.25,44,-3,-36,0,0,0,0,0
1561460855437.5,53,-4,-41,0,0,0,0,0
1561460855468.75,46,-6,-45,0,0,0,0,0
1561460855500,46,-4,-40,0,0,0,0,0
1561460855531.25,43,-4,-41,0,0,0,0,0
1561460855562.5,42,-4,-46,0,0,0,0,0
1561460855593.75,45,-2,-40,0,0,0,0,0
1561460855625,46,-1,-40,0,0,0,0,0
1561460855656.25,44,-3,-48,0,0,0,0,0
1561460855687.5,44,-3,-46,0,0,0,0,0
1561460855718.75,45,-2,-40,0,0,0,0,0
1561460855750,41,-2,-42,0,0,0,0,0
1561460855781.25,48,-2,-43,0,0,0,0,0
1561460855812.5,37,-3,-42,0,0,0,0,0
1561460855843.75,42,-2,-43,0,0,0,0,0
1561460855875,49,-2,-43,0,0,0,0,0
1561460855906.25,51,-4,-35,0,0,0,0,0
1561460855937.5,30,0,-49,0,0,0,0,0
1561460855968.75,46,-4,-43,0,0,0,0,0
1561460856000,51,-1,-33,0,0,0,0,0
1561460856031.25,42,-3,-38,0,0,0,0,0
1561460856062.5,43,-3,-42,0,0,0,0,0
1561460856093.75,48,-3,-43,0,0,0,0,0
1561460856125,46,-4,-44,0,0,0,0,0
1561460856156.25,41,-3,-42,0,0,0,0,0
1561460856187.5,46,-2,-42,0,0,0,0,0
1561460856218.75,47,-2,-41,0,0,0,0,0
1561460856250,41,-1,-42,0,0,0,0,0
1561460856281.25,37,-1,-32,0,0,0,0,0
1561460856312.5,33,-1,-35,0,0,0,0,0
1561460856343.75,39,-5,-46,0,0,0,0,0
1561460856375,43,-4,-46,0,0,0,0,0
1561460856406.25,45,-2,-45,0,0,0,0,0
1561460856437.5,42,-2,-48,0,0,0,0,0
1561460856468.75,43,-1,-40,0,0,0,0,0
1561460856500,42,0,-40,0,0,0,0,0
1561460856531.25,44,-2,-44,0,0,0,0,0
1561460856562.5,44,-3,-43,0,0,0,0,0
1561460856593.75,45,-2,-43,0,0,0,0,0
1561460856625,45,-2,-43,0,0,0,0,0
1561460856656.25,44,-1,-45,0,0,0,0,0
1561460856687.5,43,-1,-42,0,0,0,0,0
1561460856718.75,42,-1,-42,0,0,0,0,0
1561460856750,45,-2,-44,0,0,0,0,0
1561460856781.25,45,-2,-44,0,0,0,0,0
1561460856812.5,44,-1,-42,0,0,0,0,0
1561460856843.75,47,-1,-41,0,0,0,0,0
1561460856875,43,-1,-43,0,0,0,0,0
1561460856906.25,41,0,-44,0,0,0,0,0
1561460856937.5,45,-1,-43,0,0,0,0,0
1561460856968.75,44,-1,-42,0,0,0,0,0
1561460857000,42,-2,-41,0,0,0,0,0
1561460857031.25,46,-2,-40,0,0,0,0,0
1561460857062.5,50,-2,-38,0,0,0,0,0
1561460857093.75,38,-1,-40,0,0,0,0,0
1561460857125,38,0,-45,0,0,0,0,0
1561460857156.25,55,0,-42,0,0,0,0,0
1561460857187.5,52,1,-37,0,0,0,0,0
1561460857218.75,46,1,-36,0,0,0,0,0
1561460857250,48,1,-36,0,0,0,0,0
1561460857281.25,51,0,-36,0,0,0,0,0
1561460857312.5,51,0,-37,0,0,0,0,0
1561460857343.75,52,0,-37,0,0,0,0,0
1561460857375,48,0,-35,0,0,0,0,0
1561460857406.25,47,1,-34,0,0,0,0,0
1561460857437.5,51,1,-35,0,0,0,0,0
1561460857468.75,50,1,-33,0,0,0,0,0
1561460857500,55,0,-32,0,0,0,0,0
1561460857531.25,52,1,-31,0,0,0,0,0
1561460857562.5,44,13,-49,0,0,0,0,0
1561460857593.75,45,-4,-29,0,0,0,0,0
1561460857625,52,2,-28,0,0,0,0,0
1561460857656.25,59,1,-27,0,0,0,0,0
1561460857687.5,48,1,-37,0,0,0,0,0
1561460857718.75,48,1,-36,0,0,0,0,0
1561460857750,54,1,-34,0,0,0,0,0
1561460857781.25,48,1,-38,0,0,0,0,0
1561460857812.5,49,1,-39,0,0,0,0,0
1561460857843.75,50,1,-33,0,0,0,0,0
1561460857875,49,1,-36,0,0,0,0,0
1561460857906.25,46,1,-43,0,0,0,0,0
1561460857937.5,43,0,-42,0,0,0,0,0
1561460857968.75,43,0,-39,0,0,0,0,0
1561460858000,45,-1,-40,0,0,0,0,0
1561460858031.25,48,-1,-34,0,0,0,0,0
1561460858062.5,43,-1,-39,0,0,0,0,0
1561460858093.75,43,-2,-48,0,0,0,0,0
1561460858125,50,-3,-52,0,0,0,0,0
1561460858156.25,35,6,-30,0,0,0,0,0
1561460858187.5,59,-2,-52,0,0,0,0,0
1561460858218.75,45,-3,-54,0,0,0,0,0
1561460858250,45,2,-36,0,0,0,0,0
1561460858281.25,45,2,-36,0,0,0,0,0
1561460858312.5,47,0,-47,0,0,0,0,0
1561460858343.75,46,1,-44,0,0,0,0,0
1561460858375,41,2,-36,0,0,0,0,0
1561460858406.25,43,1,-41,0,0,0,0,0
1561460858437.5,47,1,-47,0,0,0,0,0
1561460858468.75,49,1,-42,0,0,0,0,0
1561460858500,47,2,-40,0,0,0,0,0
1561460858531.25,45,3,-42,0,0,0,0,0
1561460858562.5,48,1,-36,0,0,0,0,0
1561460858593.75,48,2,-36,0,0,0,0,0
1561460858625,48,3,-38,0,0,0,0,0
1561460858656.25,51,4,-37,0,0,0,0,0
1561460858687.5,46,5,-38,0,0,0,0,0
1561460858718.75,51,5,-36,0,0,0,0,0
1561460858750,53,5,-35,0,0,0,0,0
1561460858781.25,52,4,-34,0,0,0,0,0
1561460858812.5,52,3,-33,0,0,0,0,0
1561460858843.75,46,3,-35,0,0,0,0,0
1561460858875,49,3,-34,0,0,0,0,0
1561460858906.25,56,4,-34,0,0,0,0,0
1561460858937.5,54,4,-34,0,0,0,0,0
1561460858968.75,50,5,-31,0,0,0,0,0
1561460859000,57,12,-47,0,0,0,0,0
1561460859031.25,40,1,-36,0,0,0,0,0
1561460859062.5,49,5,-31,0,0,0,0,0
1561460859093.75,53,4,-29,0,0,0,0,0
1561460859125,55,3,-28,0,0,0,0,0
1561460859156.25,55,4,-30,0,0,0,0,0
1561460859187.5,49,4,-38,0,0,0,0,0
1561460859218.75,48,4,-38,0,0,0,0,0
1561460859250,52,5,-34,0,0,0,0,0
1561460859281.25,53,4,-35,0,0,0,0,0
1561460859312.5,50,4,-43,0,0,0,0,0
1561460859343.75,53,3,-42,0,0,0,0,0
1561460859375,56,1,-38,0,0,0,0,0
1561460859406.25,57,0,-43,0,0,0,0,0
1561460859437.5,53,-1,-42,0,0,0,0,0
1561460859468.75,54,-6,-39,0,0,0,0,0
1561460859500,48,-7,-41,0,0,0,0,0
1561460859531.25,33,-7,-48,0,0,0,0,0
1561460859562.5,24,-7,-49,0,0,0,0,0
1561460859593.75,30,-9,-38,0,0,0,0,0
1561460859625,32,-11,-38,0,0,0,0,0
1561460859656.25,29,-15,-41,0,0,0,0,0
1561460859687.5,28,-15,-42,0,0,0,0,0
1561460859718.75,40,-17,-41,0,0,0,0,0
1561460859750,38,-19,-45,0,0,0,0,0
1561460859781.25,37,-17,-42,0,0,0,0,0
1561460859812.5,39,-15,-46,0,0,0,0,0
1561460859843.75,38,-12,-44,0,0,0,0,0
1561460859875,31,-10,-47,0,0,0,0,0
1561460859906.25,39,-13,-47,0,0,0,0,0
1561460859937.5,45,-13,-45,0,0,0,0,0
1561460859968.75,41,-12,-46,0,0,0,0,0
1561460860000,44,-12,-41,0,0,0,0,0
1561460860031.25,44,-12,-43,0,0,0,0,0
1561460860062.5,41,-17,-49,0,0,0,0,0
1561460860093.75,41,-17,-50,0,0,0,0,0
1561460860125,24,-13,-52,0,0,0,0,0
1561460860156.25,22,-13,-53,0,0,0,0,0
1561460860187.5,41,-5,-46,0,0,0,0,0
1561460860218.75,26,-8,-67,0,0,0,0,0
1561460860250,44,-5,-56,0,0,0,0,0
1561460860281.25,55,-7,-53,0,0,0,0,0
1561460860312.5,57,-9,-58,0,0,0,0,0
1561460860343.75,49,-9,-66,0,0,0,0,0
1561460860375,61,-6,-65,0,0,0,0,0
1561460860406.25,78,2,-51,0,0,0,0,0
1561460860437.5,70,2,-39,0,0,0,0,0
1561460860468.75,31,31,-26,0,0,0,0,0
1561460860500,37,39,-17,0,0,0,0,0
1561460860531.25,36,10,-7,0,0,0,0,0
1561460860562.5,-1,8,2,0,0,0,0,0
1561460860593.75,17,7,5,0,0,0,0,0
1561460860625,27,6,0,0,0,0,0,0
1561460860656.25,45,-38,1,0,0,0,0,0
1561460860687.5,127,-26,59,0,0,0,0,0
1561460860718.75,107,-30,8,0,0,0,0,0
1561460860750,53,-26,-10,0,0,0,0,0
1561460860781.25,59,-9,20,0,0,0,0,0
1561460860812.5,73,-6,34,0,0,0,0,0
1561460860843.75,57,-3,29,0,0,0,0,0
1561460860875,69,9,22,0,0,0,0,0
1561460860906.25,70,16,23,0,0,0,0,0
1561460860937.5,45,27,17,0,0,0,0,0
1561460860968.75,47,29,21,0,0,0,0,0
1561460861000,28,28,30,0,0,0,0,0
1561460861031.25,15,17,19,0,0,0,0,0
1561460861062.5,10,18,8,0,0,0,0,0
1561460861093.75,23,38,-8,0,0,0,0,0
1561460861125,44,59,3,0,0,0,0,0
1561460861156.25,127,46,89,0,0,0,0,0
1561460861187.5,108,87,64,0,0,0,0,0
1561460861218.75,20,38,47,0,0,0,0,0
1561460861250,18,49,47,0,0,0,0,0
1561460861281.25,30,48,22,0,0,0,0,0
1561460861312.5,54,55,14,0,0,0,0,0
1561460861343.75,30,42,18,0,0,0,0,0
1561460861375,27,43,19,0,0,0,0,0
1561460861406.25,36,50,19,0,0,0,0,0
1561460861437.5,33,52,17,0,0,0,0,0
1561460861468.75,38,52,15,0,0,0,0,0
1561460861500,35,53,16,0,0,0,0,0
1561460861531.25,34,51,15,0,0,0,0,0
1561460861562.5,34,53,12,0,0,0,0,0
1561460861593.75,34,55,12,0,0,0,0,0
1561460861625,34,52,11,0,0,0,0,0
1561460861656.25,37,51,14,0,0,0,0,0
1561460861687.5,34,53,12,0,0,0,0,0
1561460861718.75,37,50,14,0,0,0,0,0
1561460861750,35,51,12,0,0,0,0,0
1561460861781.25,35,52,12,0,0,0,0,0
1561460861812.5,39,51,13,0,0,0,0,0
1561460861843.75,37,52,14,0,0,0,0,0
1561460861875,36,52,13,0,0,0,0,0
1561460861906.25,37,51,12,0,0,0,0,0
1561460861937.5,36,50,12,0,0,0,0,0
1561460861968.75,33,52,11,0,0,0,0,0
1561460862000,33,55,12,0,0,0,0,0
1561460862031.25,33,55,13,0,0,0,0,0
1561460862062.5,33,55,13,0,0,0,0,0
1561460862093.75,33,56,12,0,0,0,0,0
1561460862125,32,55,13,0,0,0,0,0
1561460862156.25,28,52,13,0,0,0,0,0
1561460862187.5,28,54,15,0,0,0,0,0
1561460862218.75,26,56,15,0,0,0,0,0
1561460862250,28,54,19,0,0,0,0,0
1561460862281.25,30,55,20,0,0,0,0,0
1561460862312.5,26,54,18,0,0,0,0,0
1561460862343.75,26,54,17,0,0,0,0,0
1561460862375,28,55,20,0,0,0,0,0
1561460862406.25,27,56,20,0,0,0,0,0
1561460862437.5,25,57,19,0,0,0,0,0
1561460862468.75,25,56,19,0,0,0,0,0
1561460862500,24,54,20,0,0,0,0,0
1561460862531.25,25,55,22,0,0,0,0,0
1561460862562.5,25,55,20,0,0,0,0,0
1561460862593.75,23,55,20,0,0,0,0,0
1561460862625,25,56,23,0,0,0,0,0
1561460862656.25,22,57,23,0,0,0,0,0
1561460862687.5,23,57,23,0,0,0,0,0
1561460862718.75,27,56,25,0,0,0,0,0
1561460862750,23,56,24,0,0,0,0,0
1561460862781.25,19,56,23,0,0,0,0,0
1561460862812.5,19,56,23,0,0,0,0,0
1561460862843.75,19,54,25,0,0,0,0,0
1561460862875,19,53,25,0,0,0,0,0
1561460862906.25,18,52,23,0,0,0,0,0
1561460862937.5,20,53,26,0,0,0,0,0
1561460862968.75,18,54,25,0,0,0,0,0
1561460863000,18,53,23,0,0,0,0,0
1561460863031.25,17,53,25,0,0,0,0,0
1561460863062.5,20,56,24,0,0,0,0,0
1561460863093.75,22,56,21,0,0,0,0,0
1561460863125,24,56,21,0,0,0,0,0
1561460863156.25,24,57,23,0,0,0,0,0
1561460863187.5,25,58,21,0,0,0,0,0
1561460863218.75,25,57,20,0,0,0,0,0
1561460863250,26,55,20,0,0,0,0,0
1561460863281.25,26,55,20,0,0,0,0,0
1561460863312.5,28,57,19,0,0,0,0,0
1561460863343.75,29,56,18,0,0,0,0,0
1561460863375,29,51,19,0,0,0,0,0
1561460863406.25,33,52,18,0,0,0,0,0
1561460863437.5,35,51,18,0,0,0,0,0
1561460863468.75,33,52,16,0,0,0,0,0
1561460863500,33,53,15,0,0,0,0,0
1561460863531.25,33,54,15,0,0,0,0,0
1561460863562.5,33,54,15,0,0,0,0,0
1561460863593.75,31,55,13,0,0,0,0,0
1561460863625,31,54,13,0,0,0,0,0
1561460863656.25,31,54,13,0,0,0,0,0
1561460863687.5,32,53,12,0,0,0,0,0
1561460863718.75,33,55,12,0,0,0,0,0
1561460863750,33,55,14,0,0,0,0,0
1561460863781.25,32,54,12,0,0,0,0,0
1561460863812.5,33,53,15,0,0,0,0,0
1561460863843.75,33,53,14,0,0,0,0,0
1561460863875,33,53,15,0,0,0,0,0
1561460863906.25,32,53,14,0,0,0,0,0
1561460863937.5,32,54,14,0,0,0,0,0
1561460863968.75,32,53,13,0,0,0,0,0
1561460864000,32,55,14,0,0,0,0,0
1561460864031.25,32,54,15,0,0,0,0,0
1561460864062.5,33,53,14,0,0,0,0,0
1561460864093.75,31,53,14,0,0,0,0,0
1561460864125,32,52,14,0,0,0,0,0
1561460864156.25,32,53,15,0,0,0,0,0
1561460864187.5,31,54,15,0,0,0,0,0
1561460864218.75,31,53,15,0,0,0,0,0
1561460864250,29,52,15,0,0,0,0,0
1561460864281.25,31,54,14,0,0,0,0,0
1561460864312.5,32,54,14,0,0,0,0,0
1561460864343.75,30,53,15,0,0,0,0,0
1561460864375,30,53,16,0,0,0,0,0
1561460864406.25,31,54,13,0,0,0,0,0
1561460864437.5,32,55,16,0,0,0,0,0
1561460864468.75,31,54,15,0,0,0,0,0
1561460864500,31,55,15,0,0,0,0,0
1561460864531.25,30,56,15,0,0,0,0,0
1561460864562.5,31,55,14,0,0,0,0,0
1561460864593.75,31,53,16,0,0,0,0,0
1561460864625,31,54,17,0,0,0,0,0
1561460864656.25,31,55,17,0,0,0,0,0
1561460864687.5,30,54,17,0,0,0,0,0
1561460864718.75,29,52,18,0,0,0,0,0
1561460864750,29,49,19,0,0,0,0,0
1561460864781.25,29,51,19,0,0,0,0,0
1561460864812.5,34,53,21,0,0,0,0,0
1561460864843.75,33,54,23,0,0,0,0,0
1561460864875,32,52,22,0,0,0,0,0
1561460864906.25,29,51,22,0,0,0,0,0
1561460864937.5,30,52,22,0,0,0,0,0
1561460864968.75,27,54,22,0,0,0,0,0
1561460865000,27,55,24,0,0,0,0,0
1561460865031.25,26,54,24,0,0,0,0,0
1561460865062.5,24,53,22,0,0,0,0,0
1561460865093.75,25,55,24,0,0,0,0,0
1561460865125,24,55,24,0,0,0,0,0
1561460865156.25,24,53,25,0,0,0,0,0
1561460865187.5,25,54,25,0,0,0,0,0
1561460865218.75,23,54,25,0,0,0,0,0
1561460865250,22,54,25,0,0,0,0,0
1561460865281.25,21,54,25,0,0,0,0,0
1561460865312.5,21,54,25,0,0,0,0,0
1561460865343.75,22,54,26,0,0,0,0,0
1561460865375,23,54,26,0,0,0,0,0
1561460865406.25,23,55,26,0,0,0,0,0
1561460865437.5,21,55,25,0,0,0,0,0
1561460865468.75,22,55,26,0,0,0,0,0
1561460865500,21,55,26,0,0,0,0,0
1561460865531.25,22,54,27,0,0,0,0,0
1561460865562.5,21,54,26,0,0,0,0,0
1561460865593.75,21,54,26,0,0,0,0,0
1561460865625,22,55,27,0,0,0,0,0
1561460865656.25,22,54,27,0,0,0,0,0
1561460865687.5,21,54,27,0,0,0,0,0
1561460865718.75,21,54,27,0,0,0,0,0
1561460865750,21,54,27,0,0,0,0,0
1561460865781.25,21,54,27,0,0,0,0,0
1561460865812.5,22,55,27,0,0,0,0,0
1561460865843.75,22,55,27,0,0,0,0,0
1561460865875,20,55,26,0,0,0,0,0
1561460865906.25,21,54,27,0,0,0,0,0
1561460865937.5,21,55,27,0,0,0,0,0
1561460865968.75,22,55,27,0,0,0,0,0
1561460866000,22,55,26,0,0,0,0,0
1561460866031.25,21,55,26,0,0,0,0,0
1561460866062.5,22,54,27,0,0,0,0,0
1561460866093.75,22,54,26,0,0,0,0,0
1561460866125,22,54,27,0,0,0,0,0
1561460866156.25,22,55,27,0,0,0,0,0
1561460866187.5,21,56,26,0,0,0,0,0
1561460866218.75,22,55,27,0,0,0,0,0
1561460866250,21,54,27,0,0,0,0,0
1561460866281.25,21,54,27,0,0,0,0,0
1561460866312.5,20,54,26,0,0,0,0,0
1561460866343.75,20,54,26,0,0,0,0,0
1561460866375,21,55,25,0,0,0,0,0
1561460866406.25,23,54,26,0,0,0,0,0
1561460866437.5,26,55,27,0,0,0,0,0
1561460866468.75,24,56,27,0,0,0,0,0
1561460866500,26,54,27,0,0,0,0,0
1561460866531.25,24,54,26,0,0,0,0,0
1561460866562.5,22,52,27,0,0,0,0,0
1561460866593.75,20,52,27,0,0,0,0,0
1561460866625,23,51,27,0,0,0,0,0
1561460866656.25,25,52,28,0,0,0,0,0
1561460866687.5,27,53,29,0,0,0,0,0
1561460866718.75,27,53,29,0,0,0,0,0
1561460866750,26,53,28,0,0,0,0,0
1561460866781.25,25,53,27,0,0,0,0,0
1561460866812.5,23,53,27,0,0,0,0,0
1561460866843.75,22,52,27,0,0,0,0,0
1561460866875,22,53,27,0,0,0,0,0
1561460866906.25,23,54,28,0,0,0,0,0
1561460866937.5,24,53,28,0,0,0,0,0
1561460866968.75,23,53,28,0,0,0,0,0
1561460867000,24,52,28,0,0,0,0,0
1561460867031.25,24,52,28,0,0,0,0,0
1561460867062.5,23,52,28,0,0,0,0,0
1561460867093.75,23,52,28,0,0,0,0,0
1561460867125,23,52,28,0,0,0,0,0
1561460867156.25,23,53,28,0,0,0,0,0
1561460867187.5,22,54,28,0,0,0,0,0
1561460867218.75,21,52,27,0,0,0,0,0
1561460867250,20,52,25,0,0,0,0,0
1561460867281.25,21,52,29,0,0,0,0,0
1561460867312.5,31,50,29,0,0,0,0,0
1561460867343.75,34,51,33,0,0,0,0,0
1561460867375,30,48,30,0,0,0,0,0
1561460867406.25,33,50,29,0,0,0,0,0
1561460867437.5,27,48,30,0,0,0,0,0
1561460867468.75,29,48,32,0,0,0,0,0
1561460867500,28,49,31,0,0,0,0,0
1561460867531.25,28,47,31,0,0,0,0,0
1561460867562.5,23,45,32,0,0,0,0,0
1561460867593.75,36,45,35,0,0,0,0,0
1561460867625,26,46,33,0,0,0,0,0
1561460867656.25,30,46,33,0,0,0,0,0
1561460867687.5,28,46,33,0,0,0,0,0
1561460867718.75,31,45,35,0,0,0,0,0
1561460867750,30,45,35,0,0,0,0,0
1561460867781.25,29,44,35,0,0,0,0,0
1561460867812.5,29,45,35,0,0,0,0,0
1561460867843.75,29,46,35,0,0,0,0,0
1561460867875,33,52,37,0,0,0,0,0
1561460867906.25,24,57,42,0,0,0,0,0
1561460867937.5,29,57,28,0,0,0,0,0
1561460867968.75,70,33,28,0,0,0,0,0
1561460868000,83,46,74,0,0,0,0,0
1561460868031.25,96,26,34,0,0,0,0,0
1561460868062.5,100,20,11,0,0,0,0,0
1561460868093.75,72,12,6,0,0,0,0,0
1561460868125,58,-2,1,0,0,0,0,0
1561460868156.25,48,-8,-8,0,0,0,0,0
1561460868187.5,32,-18,-10,0,0,0,0,0
1561460868218.75,35,-19,5,0,0,0,0,0
1561460868250,41,-21,9,0,0,0,0,0
1561460868281.25,42,-18,22,0,0,0,0,0
1561460868312.5,43,-16,29,0,0,0,0,0
1561460868343.75,37,-20,35,0,0,0,0,0
1561460868375,34,-22,36,0,0,0,0,0
1561460868406.25,39,-21,37,0,0,0,0,0
1561460868437.5,37,-21,36,0,0,0,0,0
1561460868468.75,37,-23,35,0,0,0,0,0
1561460868500,40,-22,37,0,0,0,0,0
1561460868531.25,38,-22,36,0,0,0,0,0
1561460868562.5,37,-24,34,0,0,0,0,0
1561460868593.75,39,-21,38,0,0,0,0,0
1561460868625,42,-18,35,0,0,0,0,0
1561460868656.25,38,-18,35,0,0,0,0,0
1561460868687.5,41,-26,34,0,0,0,0,0
1561460868718.75,38,-28,32,0,0,0,0,0
1561460868750,42,-31,30,0,0,0,0,0
1561460868781.25,46,-35,32,0,0,0,0,0
1561460868812.5,48,-34,38,0,0,0,0,0
1561460868843.75,43,-30,34,0,0,0,0,0
1561460868875,38,-27,37,0,0,0,0,0
1561460868906.25,39,-26,38,0,0,0,0,0
1561460868937.5,43,-21,39,0,0,0,0,0
1561460868968.75,52,-18,43,0,0,0,0,0
1561460869000,59,-16,44,0,0,0,0,0
1561460869031.25,44,-16,34,0,0,0,0,0
1561460869062.5,59,-11,44,0,0,0,0,0
1561460869093.75,54,-14,34,0,0,0,0,0
1561460869125,47,-11,42,0,0,0,0,0
1561460869156.25,56,-9,42,0,0,0,0,0
1561460869187.5,53,-4,43,0,0,0,0,0
1561460869218.75,42,-7,38,0,0,0,0,0
1561460869250,52,-3,47,0,0,0,0,0
1561460869281.25,32,-8,35,0,0,0,0,0
1561460869312.5,33,-7,30,0,0,0,0,0
1561460869343.75,64,-9,29,0,0,0,0,0
1561460869375,60,-9,24,0,0,0,0,0
1561460869406.25,57,-6,28,0,0,0,0,0
1561460869437.5,54,-6,29,0,0,0,0,0
1561460869468.75,54,-1,31,0,0,0,0,0
1561460869500,57,3,45,0,0,0,0,0
1561460869531.25,56,6,47,0,0,0,0,0
1561460869562.5,54,8,46,0,0,0,0,0
1561460869593.75,52,7,46,0,0,0,0,0
1561460869625,44,1,42,0,0,0,0,0
1561460869656.25,44,1,44,0,0,0,0,0
1561460869687.5,46,-1,46,0,0,0,0,0
1561460869718.75,45,-1,46,0,0,0,0,0
1561460869750,43,-3,43,0,0,0,0,0
1561460869781.25,45,-5,43,0,0,0,0,0
1561460869812.5,54,-8,36,0,0,0,0,0
1561460869843.75,43,-7,42,0,0,0,0,0
1561460869875,39,-7,42,0,0,0,0,0
1561460869906.25,45,-3,43,0,0,0,0,0
1561460869937.5,45,-1,44,0,0,0,0,0
1561460869968.75,46,0,53,0,0,0,0,0
1561460870000,40,-3,50,0,0,0,0,0
1561460870031.25,41,-4,54,0,0,0,0,0
1561460870062.5,40,-5,55,0,0,0,0,0
1561460870093.75,31,-7,50,0,0,0,0,0
1561460870125,26,-12,47,0,0,0,0,0
1561460870156.25,36,-17,49,0,0,0,0,0
1561460870187.5,35,-17,50,0,0,0,0,0
1561460870218.75,32,-17,48,0,0,0,0,0
1561460870250,33,-12,51,0,0,0,0,0
1561460870281.25,34,-11,53,0,0,0,0,0
1561460870312.5,31,-11,50,0,0,0,0,0
1561460870343.75,29,-12,49,0,0,0,0,0
1561460870375,31,-14,55,0,0,0,0,0
1561460870406.25,34,-13,55,0,0,0,0,0
1561460870437.5,32,-13,52,0,0,0,0,0
1561460870468.75,29,-15,50,0,0,0,0,0
1561460870500,26,-13,53,0,0,0,0,0
1561460870531.25,32,-14,53,0,0,0,0,0
1561460870562.5,38,-12,52,0,0,0,0,0
1561460870593.75,34,-12,51,0,0,0,0,0
1561460870625,35,-12,55,0,0,0,0,0
1561460870656.25,49,-11,51,0,0,0,0,0
1561460870687.5,28,-9,47,0,0,0,0,0
1561460870718.75,33,-11,53,0,0,0,0,0
1561460870750,38,-11,53,0,0,0,0,0
1561460870781.25,27,-11,48,0,0,0,0,0
1561460870812.5,30,-11,50,0,0,0,0,0
1561460870843.75,40,-10,50,0,0,0,0,0
1561460870875,38,-8,49,0,0,0,0,0
1561460870906.25,37,-12,51,0,0,0,0,0
1561460870937.5,41,-10,51,0,0,0,0,0
1561460870968.75,39,-9,52,0,0,0,0,0
1561460871000,40,-8,50,0,0,0,0,0
1561460871031.25,37,-8,50,0,0,0,0,0
1561460871062.5,35,-6,49,0,0,0,0,0
1561460871093.75,39,-6,48,0,0,0,0,0
1561460871125,39,-6,51,0,0,0,0,0
1561460871156.25,44,-7,48,0,0,0,0,0
1561460871187.5,44,-10,45,0,0,0,0,0
1561460871218.75,42,-9,47,0,0,0,0,0
1561460871250,45,-5,49,0,0,0,0,0
1561460871281.25,50,-3,51,0,0,0,0,0
1561460871312.5,37,-6,45,0,0,0,0,0
1561460871343.75,36,-7,41,0,0,0,0,0
1561460871375,45,-7,42,0,0,0,0,0
1561460871406.25,47,-4,44,0,0,0,0,0
1561460871437.5,35,-5,45,0,0,0,0,0
1561460871468.75,46,-4,41,0,0,0,0,0
1561460871500,58,-2,46,0,0,0,0,0
1561460871531.25,38,-2,48,0,0,0,0,0
1561460871562.5,42,1,49,0,0,0,0,0
1561460871593.75,47,1,46,0,0,0,0,0
1561460871625,44,1,45,0,0,0,0,0
1561460871656.25,42,1,44,0,0,0,0,0
1561460871687.5,41,5,42,0,0,0,0,0
1561460871718.75,49,7,48,0,0,0,0,0
1561460871750,49,5,49,0,0,0,0,0
1561460871781.25,43,4,46,0,0,0,0,0
1561460871812.5,41,4,43,0,0,0,0,0
1561460871843.75,46,4,47,0,0,0,0,0
1561460871875,40,4,42,0,0,0,0,0
1561460871906.25,43,5,43,0,0,0,0,0
1561460871937.5,44,6,43,0,0,0,0,0
1561460871968.75,36,6,42,0,0,0,0,0
1561460872000,45,4,54,0,0,0,0,0
1561460872031.25,43,6,53,0,0,0,0,0
1561460872062.5,48,19,48,0,0,0,0,0
1561460872093.75,46,18,43,0,0,0,0,0
1561460872125,50,12,40,0,0,0,0,0
1561460872156.25,48,14,40,0,0,0,0,0
1561460872187.5,48,19,45,0,0,0,0,0
1561460872218.75,40,17,46,0,0,0,0,0
1561460872250,39,10,48,0,0,0,0,0
1561460872281.25,34,9,47,0,0,0,0,0
1561460872312.5,38,6,45,0,0,0,0,0
1561460872343.75,40,9,50,0,0,0,0,0
1561460872375,32,10,51,0,0,0,0,0
1561460872406.25,32,10,49,0,0,0,0,0
1561460872437.5,38,10,47,0,0,0,0,0
1561460872468.75,38,11,51,0,0,0,0,0
1561460872500,35,11,51,0,0,0,0,0
1561460872531.25,39,10,46,0,0,0,0,0
1561460872562.5,40,11,50,0,0,0,0,0
1561460872593.75,36,12,47,0,0,0,0,0
1561460872625,39,13,52,0,0,0,0,0
1561460872656.25,37,11,48,0,0,0,0,0
1561460872687.5,37,14,55,0,0,0,0,0
1561460872718.75,37,17,63,0,0,0,0,0
1561460872750,33,14,50,0,0,0,0,0
1561460872781.25,38,13,47,0,0,0,0,0
1561460872812.5,29,16,58,0,0,0,0,0
1561460872843.75,28,16,56,0,0,0,0,0
1561460872875,30,12,47,0,0,0,0,0
1561460872906.25,38,10,49,0,0,0,0,0
1561460872937.5,32,15,53,0,0,0,0,0
1561460872968.75,31,15,50,0,0,0,0,0
1561460873000,40,12,51,0,0,0,0,0
1561460873031.25,46,13,51,0,0,0,0,0
1561460873062.5,44,13,45,0,0,0,0,0
1561460873093.75,47,11,46,0,0,0,0,0
1561460873125,45,10,43,0,0,0,0,0
1561460873156.25,43,10,43,0,0,0,0,0
1561460873187.5,46,9,46,0,0,0,0,0
1561460873218.75,44,10,46,0,0,0,0,0
1561460873250,43,9,44,0,0,0,0,0
1561460873281.25,41,5,43,0,0,0,0,0
1561460873312.5,42,3,43,0,0,0,0,0
1561460873343.75,49,3,48,0,0,0,0,0
1561460873375,45,2,44,0,0,0,0,0
1561460873406.25,43,2,43,0,0,0,0,0
1561460873437.5,48,2,45,0,0,0,0,0
1561460873468.75,47,5,44,0,0,0,0,0
1561460873500,47,3,47,0,0,0,0,0
1561460873531.25,57,5,49,0,0,0,0,0
1561460873562.5,38,5,43,0,0,0,0,0
1561460873593.75,30,8,62,0,0,0,0,0
1561460873625,58,10,90,0,0,0,0,0
1561460873656.25,65,7,92,0,0,0,0,0
1561460873687.5,55,-3,65,0,0,0,0,0
1561460873718.75,42,-11,45,0,0,0,0,0
1561460873750,33,-18,11,0,0,0,0,0
1561460873781.25,21,-16,8,0,0,0,0,0
1561460873812.5,18,-33,6,0,0,0,0,0
1561460873843.75,9,-39,12,0,0,0,0,0
1561460873875,8,-45,13,0,0,0,0,0
1561460873906.25,6,-51,15,0,0,0,0,0
1561460873937.5,17,-48,30,0,0,0,0,0
1561460873968.75,27,-52,14,0,0,0,0,0
1561460874000,34,-50,21,0,0,0,0,0
1561460874031.25,41,-54,-7,0,0,0,0,0
1561460874062.5,24,-51,-11,0,0,0,0,0
1561460874093.75,35,-47,15,0,0,0,0,0
1561460874125,41,-49,11,0,0,0,0,0
1561460874156.25,59,-50,-16,0,0,0,0,0
1561460874187.5,55,-57,-24,0,0,0,0,0
1561460874218.75,15,-53,-11,0,0,0,0,0
1561460874250,10,-37,21,0,0,0,0,0
1561460874281.25,35,-38,29,0,0,0,0,0
1561460874312.5,73,-32,38,0,0,0,0,0
1561460874343.75,69,-30,44,0,0,0,0,0
1561460874375,23,-27,32,0,0,0,0,0
1561460874406.25,30,-21,40,0,0,0,0,0
1561460874437.5,52,-25,57,0,0,0,0,0
1561460874468.75,46,-28,46,0,0,0,0,0
1561460874500,34,-26,43,0,0,0,0,0
1561460874531.25,37,-29,42,0,0,0,0,0
1561460874562.5,45,-31,41,0,0,0,0,0
1561460874593.75,34,-26,39,0,0,0,0,0
1561460874625,30,-23,44,0,0,0,0,0
1561460874656.25,58,-27,40,0,0,0,0,0
1561460874687.5,53,-29,30,0,0,0,0,0
1561460874718.75,35,-31,29,0,0,0,0,0
1561460874750,39,-30,37,0,0,0,0,0
1561460874781.25,41,-27,50,0,0,0,0,0
1561460874812.5,19,-26,49,0,0,0,0,0
1561460874843.75,17,-20,49,0,0,0,0,0
1561460874875,30,-22,49,0,0,0,0,0
1561460874906.25,36,-22,40,0,0,0,0,0
1561460874937.5,39,-26,28,0,0,0,0,0
1561460874968.75,61,-32,-1,0,0,0,0,0
1561460875000,72,-36,-1,0,0,0,0,0
1561460875031.25,56,-37,-3,0,0,0,0,0
1561460875062.5,42,-34,6,0,0,0,0,0
1561460875093.75,28,-31,15,0,0,0,0,0
1561460875125,27,-16,49,0,0,0,0,0
1561460875156.25,24,-15,51,0,0,0,0,0
1561460875187.5,36,-4,70,0,0,0,0,0
1561460875218.75,41,-3,76,0,0,0,0,0
1561460875250,17,1,81,0,0,0,0,0
1561460875281.25,21,4,84,0,0,0,0,0
1561460875312.5,17,-3,56,0,0,0,0,0
1561460875343.75,16,-5,52,0,0,0,0,0
1561460875375,9,-12,48,0,0,0,0,0
1561460875406.25,13,-14,51,0,0,0,0,0
1561460875437.5,2,-19,45,0,0,0,0,0
1561460875468.75,13,-8,56,0,0,0,0,0
1561460875500,21,-7,52,0,0,0,0,0
1561460875531.25,56,-1,51,0,0,0,0,0
1561460875562.5,73,2,54,0,0,0,0,0
1561460875593.75,52,-3,26,0,0,0,0,0
1561460875625,52,-6,13,0,0,0,0,0
1561460875656.25,66,3,30,0,0,0,0,0
1561460875687.5,61,2,31,0,0,0,0,0
1561460875718.75,58,11,43,0,0,0,0,0
1561460875750,55,13,54,0,0,0,0,0
1561460875781.25,41,11,50,0,0,0,0,0
1561460875812.5,39,12,45,0,0,0,0,0
1561460875843.75,41,12,48,0,0,0,0,0
1561460875875,37,8,46,0,0,0,0,0
1561460875906.25,36,8,43,0,0,0,0,0
1561460875937.5,41,8,47,0,0,0,0,0
1561460875968.75,40,7,46,0,0,0,0,0
1561460876000,43,7,41,0,0,0,0,0
1561460876031.25,47,9,42,0,0,0,0,0
1561460876062.5,44,10,43,0,0,0,0,0
1561460876093.75,46,12,47,0,0,0,0,0
1561460876125,45,13,47,0,0,0,0,0
1561460876156.25,44,13,46,0,0,0,0,0
1561460876187.5,41,13,46,0,0,0,0,0
1561460876218.75,41,12,45,0,0,0,0,0
1561460876250,40,11,40,0,0,0,0,0
1561460876281.25,47,10,34,0,0,0,0,0
1561460876312.5,48,11,37,0,0,0,0,0
1561460876343.75,46,16,45,0,0,0,0,0
1561460876375,47,15,46,0,0,0,0,0
1561460876406.25,44,16,45,0,0,0,0,0
1561460876437.5,42,16,44,0,0,0,0,0
1561460876468.75,41,20,48,0,0,0,0,0
1561460876500,39,19,47,0,0,0,0,0
1561460876531.25,38,20,48,0,0,0,0,0
1561460876562.5,39,18,46,0,0,0,0,0
1561460876593.75,43,16,44,0,0,0,0,0
1561460876625,43,15,41,0,0,0,0,0
1561460876656.25,47,18,40,0,0,0,0,0
1561460876687.5,49,21,38,0,0,0,0,0
1561460876718.75,49,23,38,0,0,0,0,0
1561460876750,60,23,42,0,0,0,0,0
1561460876781.25,55,23,43,0,0,0,0,0
1561460876812.5,65,17,44,0,0,0,0,0
1561460876843.75,71,14,38,0,0,0,0,0
1561460876875,50,9,24,0,0,0,0,0
1561460876906.25,42,4,28,0,0,0,0,0
1561460876937.5,48,-1,38,0,0,0,0,0
1561460876968.75,48,-5,44,0,0,0,0,0
1561460877000,32,-3,48,0,0,0,0,0
1561460877031.25,19,-3,38,0,0,0,0,0
1561460877062.5,49,4,50,0,0,0,0,0
1561460877093.75,42,4,20,0,0,0,0,0
1561460877125,53,4,10,0,0,0,0,0
1561460877156.25,70,-1,-3,0,0,0,0,0
1561460877187.5,64,-1,-10,0,0,0,0,0
1561460877218.75,81,15,17,0,0,0,0,0
1561460877250,98,18,43,0,0,0,0,0
1561460877281.25,60,4,4,0,0,0,0,0
1561460877312.5,57,6,14,0,0,0,0,0
1561460877343.75,63,2,24,0,0,0,0,0
1561460877375,62,-3,20,0,0,0,0,0
1561460877406.25,50,-2,29,0,0,0,0,0
1561460877437.5,54,-3,27,0,0,0,0,0
1561460877468.75,55,5,30,0,0,0,0,0
1561460877500,48,2,28,0,0,0,0,0
1561460877531.25,51,-1,33,0,0,0,0,0
1561460877562.5,52,-4,39,0,0,0,0,0
1561460877593.75,48,-4,40,0,0,0,0,0
1561460877625,42,-7,40,0,0,0,0,0
1561460877656.25,40,-4,33,0,0,0,0,0
1561460877687.5,52,7,41,0,0,0,0,0
1561460877718.75,62,9,50,0,0,0,0,0
1561460877750,43,0,34,0,0,0,0,0
1561460877781.25,51,3,45,0,0,0,0,0
1561460877812.5,48,-2,37,0,0,0,0,0
1561460877843.75,48,1,38,0,0,0,0,0
1561460877875,43,-1,33,0,0,0,0,0
1561460877906.25,49,0,36,0,0,0,0,0
1561460877937.5,53,1,35,0,0,0,0,0
1561460877968.75,50,1,34,0,0,0,0,0
1561460878000,57,1,41,0,0,0,0,0
1561460878031.25,52,1,37,0,0,0,0,0
1561460878062.5,48,1,35,0,0,0,0,0
1561460878093.75,55,-1,38,0,0,0,0,0
1561460878125,55,0,33,0,0,0,0,0
1561460878156.25,49,1,36,0,0,0,0,0
1561460878187.5,46,4,36,0,0,0,0,0
1561460878218.75,47,0,35,0,0,0,0,0
1561460878250,36,5,26,0,0,0,0,0
1561460878281.25,55,1,39,0,0,0,0,0
1561460878312.5,45,1,25,0,0,0,0,0
1561460878343.75,61,-6,34,0,0,0,0,0
1561460878375,68,0,31,0,0,0,0,0
1561460878406.25,59,1,21,0,0,0,0,0
1561460878437.5,57,3,20,0,0,0,0,0
1561460878468.75,64,5,26,0,0,0,0,0
1561460878500,65,4,19,0,0,0,0,0
1561460878531.25,64,7,20,0,0,0,0,0
1561460878562.5,50,1,26,0,0,0,0,0
1561460878593.75,48,-1,30,0,0,0,0,0
1561460878625,53,5,24,0,0,0,0,0
1561460878656.25,66,7,30,0,0,0,0,0
1561460878687.5,53,7,55,0,0,0,0,0
1561460878718.75,18,-4,27,0,0,0,0,0
1561460878750,31,21,36,0,0,0,0,0
1561460878781.25,41,15,36,0,0,0,0,0
1561460878812.5,48,12,36,0,0,0,0,0
1561460878843.75,54,3,37,0,0,0,0,0
1561460878875,53,0,43,0,0,0,0,0
1561460878906.25,45,-3,36,0,0,0,0,0
1561460878937.5,56,0,41,0,0,0,0,0
1561460878968.75,55,9,55,0,0,0,0,0
1561460879000,28,3,33,0,0,0,0,0
1561460879031.25,25,7,33,0,0,0,0,0
1561460879062.5,35,13,45,0,0,0,0,0
1561460879093.75,41,18,48,0,0,0,0,0
1561460879125,36,21,36,0,0,0,0,0
1561460879156.25,53,26,38,0,0,0,0,0
1561460879187.5,57,38,51,0,0,0,0,0
1561460879218.75,53,29,48,0,0,0,0,0
1561460879250,40,21,31,0,0,0,0,0
1561460879281.25,42,21,27,0,0,0,0,0
1561460879312.5,68,23,40,0,0,0,0,0
1561460879343.75,68,28,39,0,0,0,0,0
1561460879375,36,23,33,0,0,0,0,0
1561460879406.25,36,25,35,0,0,0,0,0
1561460879437.5,47,23,38,0,0,0,0,0
1561460879468.75,49,22,38,0,0,0,0,0
1561460879500,49,22,35,0,0,0,0,0
1561460879531.25,48,22,35,0,0,0,0,0
1561460879562.5,47,22,35,0,0,0,0,0
1561460879593.75,47,21,36,0,0,0,0,0
1561460879625,47,21,35,0,0,0,0,0
1561460879656.25,48,22,35,0,0,0,0,0
1561460879687.5,48,22,35,0,0,0,0,0
1561460879718.75,48,21,35,0,0,0,0,0
1561460879750,49,22,35,0,0,0,0,0
1561460879781.25,49,21,34,0,0,0,0,0
1561460879812.5,50,21,35,0,0,0,0,0
1561460879843.75,47,21,34,0,0,0,0,0
1561460879875,49,21,35,0,0,0,0,0
1561460879906.25,49,21,35,0,0,0,0,0
1561460879937.5,48,21,34,0,0,0,0,0
1561460879968.75,48,21,34,0,0,0,0,0
1561460880000,48,21,35,0,0,0,0,0
1561460880031.25,48,21,34,0,0,0,0,0
1561460880062.5,49,20,34,0,0,0,0,0
1561460880093.75,49,20,35,0,0,0,0,0
1561460880125,49,21,35,0,0,0,0,0
1561460880156.25,49,21,34,0,0,0,0,0
1561460880187.5,49,21,34,0,0,0,0,0
1561460880218.75,48,20,35,0,0,0,0,0
1561460880250,48,20,35,0,0,0,0,0
1561460880281.25,50,22,35,0,0,0,0,0
1561460880312.5,49,22,34,0,0,0,0,0
1561460880343.75,48,21,33,0,0,0,0,0
1561460880375,48,21,34,0,0,0,0,0
1561460880406.25,49,20,35,0,0,0,0,0
1561460880437.5,49,20,36,0,0,0,0,0
1561460880468.75,48,21,34,0,0,0,0,0
1561460880500,49,21,35,0,0,0,0,0
1561460880531.25,49,21,34,0,0,0,0,0
1561460880562.5,48,21,34,0,0,0,0,0
1561460880593.75,48,20,35,0,0,0,0,0
1561460880625,49,20,35,0,0,0,0,0
1561460880656.25,48,21,35,0,0,0,0,0
1561460880687.5,48,21,35,0,0,0,0,0
1561460880718.75,49,21,35,0,0,0,0,0
1561460880750,49,21,34,0,0,0,0,0
1561460880781.25,48,21,34,0,0,0,0,0
1561460880812.5,49,21,34,0,0,0,0,0
1561460880843.75,48,21,34,0,0,0,0,0
1561460880875,49,21,35,0,0,0,0,0
1561460880906.25,48,21,34,0,0,0,0,0
1561460880937.5,48,22,34,0,0,0,0,0
1561460880968.75,49,22,35,0,0,0,0,0
1561460881000,48,21,34,0,0,0,0,0
1561460881031.25,47,21,34,0,0,0,0,0
1561460881062.5,50,21,35,0,0,0,0,0
1561460881093.75,48,21,35,0,0,0,0,0
1561460881125,47,22,34,0,0,0,0,0
1561460881156.25,48,22,34,0,0,0,0,0
1561460881187.5,49,21,35,0,0,0,0,0
1561460881218.75,48,21,34,0,0,0,0,0
1561460881250,48,22,34,0,0,0,0,0
1561460881281.25,48,21,35,0,0,0,0,0
1561460881312.5,48,21,35,0,0,0,0,0
1561460881343.75,48,22,34,0,0,0,0,0
1561460881375,48,22,34,0,0,0,0,0
1561460881406.25,48,22,34,0,0,0,0,0
1561460881437.5,49,22,34,0,0,0,0,0
1561460881468.75,48,21,35,0,0,0,0,0
1561460881500,48,22,35,0,0,0,0,0
1561460881531.25,48,22,34,0,0,0,0,0
1561460881562.5,48,22,35,0,0,0,0,0
1561460881593.75,47,22,34,0,0,0,0,0
1561460881625,48,22,35,0,0,0,0,0
1561460881656.25,48,22,35,0,0,0,0,0
1561460881687.5,48,22,35,0,0,0,0,0
1561460881718.75,48,22,35,0,0,0,0,0
1561460881750,47,23,35,0,0,0,0,0
1561460881781.25,47,22,35,0,0,0,0,0
1561460881812.5,48,22,36,0,0,0,0,0
1561460881843.75,47,22,35,0,0,0,0,0
1561460881875,47,22,35,0,0,0,0,0
1561460881906.25,47,23,35,0,0,0,0,0
1561460881937.5,47,23,35,0,0,0,0,0
1561460881968.75,47,23,36,0,0,0,0,0
1561460882000,47,23,35,0,0,0,0,0
1561460882031.25,47,23,35,0,0,0,0,0
1561460882062.5,47,23,36,0,0,0,0,0
1561460882093.75,47,23,35,0,0,0,0,0
1561460882125,47,23,35,0,0,0,0,0
1561460882156.25,47,23,35,0,0,0,0,0
1561460882187.5,48,23,35,0,0,0,0,0
1561460882218.75,47,22,35,0,0,0,0,0
1561460882250,46,23,36,0,0,0,0,0
1561460882281.25,48,24,36,0,0,0,0,0
1561460882312.5,47,24,36,0,0,0,0,0
1561460882343.75,46,24,35,0,0,0,0,0
1561460882375,46,23,35,0,0,0,0,0
1561460882406.25,46,23,35,0,0,0,0,0
1561460882437.5,46,23,36,0,0,0,0,0
1561460882468.75,47,23,36,0,0,0,0,0
1561460882500,47,22,35,0,0,0,0,0
1561460882531.25,47,22,35,0,0,0,0,0
1561460882562.5,48,23,35,0,0,0,0,0
1561460882593.75,49,23,35,0,0,0,0,0
1561460882625,48,24,35,0,0,0,0,0
1561460882656.25,51,24,37,0,0,0,0,0
1561460882687.5,47,23,36,0,0,0,0,0
1561460882718.75,44,22,35,0,0,0,0,0
1561460882750,44,21,36,0,0,0,0,0
1561460882781.25,45,20,39,0,0,0,0,0
1561460882812.5,44,20,39,0,0,0,0,0
1561460882843.75,46,21,38,0,0,0,0,0
1561460882875,48,22,39,0,0,0,0,0
1561460882906.25,45,23,36,0,0,0,0,0
1561460882937.5,46,21,37,0,0,0,0,0
1561460882968.75,47,23,37,0,0,0,0,0
1561460883000,48,20,37,0,0,0,0,0
1561460883031.25,49,20,38,0,0,0,0,0
1561460883062.5,47,20,37,0,0,0,0,0
1561460883093.75,47,21,36,0,0,0,0,0
1561460883125,48,21,35,0,0,0,0,0
1561460883156.25,48,21,36,0,0,0,0,0
1561460883187.5,47,22,37,0,0,0,0,0
1561460883218.75,46,24,37,0,0,0,0,0
1561460883250,46,34,41,0,0,0,0,0
1561460883281.25,54,39,45,0,0,0,0,0
1561460883312.5,73,58,53,0,0,0,0,0
1561460883343.75,64,51,46,0,0,0,0,0
1561460883375,65,33,49,0,0,0,0,0
1561460883406.25,62,32,47,0,0,0,0,0
1561460883437.5,44,31,23,0,0,0,0,0
1561460883468.75,24,24,8,0,0,0,0,0
1561460883500,18,14,7,0,0,0,0,0
1561460883531.25,28,-2,12,0,0,0,0,0
1561460883562.5,34,-4,17,0,0,0,0,0
1561460883593.75,13,-8,42,0,0,0,0,0
1561460883625,37,7,78,0,0,0,0,0
1561460883656.25,78,-7,124,0,0,0,0,0
1561460883687.5,47,-23,96,0,0,0,0,0
1561460883718.75,61,-14,31,0,0,0,0,0
1561460883750,49,-1,4,0,0,0,0,0
1561460883781.25,57,-5,-9,0,0,0,0,0
1561460883812.5,53,-5,-11,0,0,0,0,0
1561460883843.75,39,-10,-16,0,0,0,0,0
1561460883875,59,-1,-1,0,0,0,0,0
1561460883906.25,55,3,-7,0,0,0,0,0
1561460883937.5,60,4,-10,0,0,0,0,0
1561460883968.75,55,5,-12,0,0,0,0,0
1561460884000,72,11,10,0,0,0,0,0
1561460884031.25,71,6,9,0,0,0,0,0
1561460884062.5,52,11,11,0,0,0,0,0
1561460884093.75,52,14,18,0,0,0,0,0
1561460884125,67,13,38,0,0,0,0,0
1561460884156.25,54,16,36,0,0,0,0,0
1561460884187.5,54,27,35,0,0,0,0,0
1561460884218.75,54,29,37,0,0,0,0,0
1561460884250,54,30,37,0,0,0,0,0
1561460884281.25,47,32,43,0,0,0,0,0
1561460884312.5,50,27,44,0,0,0,0,0
1561460884343.75,49,17,32,0,0,0,0,0
1561460884375,53,23,36,0,0,0,0,0
1561460884406.25,43,35,51,0,0,0,0,0
1561460884437.5,33,34,48,0,0,0,0,0
1561460884468.75,39,31,41,0,0,0,0,0
1561460884500,46,30,43,0,0,0,0,0
1561460884531.25,47,35,37,0,0,0,0,0
1561460884562.5,50,35,35,0,0,0,0,0
1561460884593.75,48,34,32,0,0,0,0,0
1561460884625,47,32,25,0,0,0,0,0
1561460884656.25,51,28,20,0,0,0,0,0
1561460884687.5,50,17,12,0,0,0,0,0
1561460884718.75,54,9,10,0,0,0,0,0
1561460884750,62,-15,27,0,0,0,0,0
1561460884781.25,67,4,21,0,0,0,0,0
1561460884812.5,77,7,1,0,0,0,0,0
1561460884843.75,65,21,16,0,0,0,0,0
1561460884875,57,8,24,0,0,0,0,0
1561460884906.25,52,7,18,0,0,0,0,0
1561460884937.5,37,22,17,0,0,0,0,0
1561460884968.75,35,29,19,0,0,0,0,0
1561460885000,61,25,18,0,0,0,0,0
1561460885031.25,86,27,25,0,0,0,0,0
1561460885062.5,60,31,21,0,0,0,0,0
1561460885093.75,56,24,14,0,0,0,0,0
1561460885125,55,19,16,0,0,0,0,0
1561460885156.25,61,13,16,0,0,0,0,0
1561460885187.5,51,15,10,0,0,0,0,0
1561460885218.75,54,16,4,0,0,0,0,0
1561460885250,62,19,5,0,0,0,0,0
1561460885281.25,56,22,-7,0,0,0,0,0
1561460885312.5,58,24,-7,0,0,0,0,0
1561460885343.75,59,24,-12,0,0,0,0,0
1561460885375,62,23,-14,0,0,0,0,0
1561460885406.25,65,14,-14,0,0,0,0,0
1561460885437.5,69,12,-15,0,0,0,0,0
1561460885468.75,64,7,-16,0,0,0,0,0
1561460885500,69,0,-6,0,0,0,0,0
1561460885531.25,69,2,4,0,0,0,0,0
1561460885562.5,65,-1,12,0,0,0,0,0
1561460885593.75,54,-3,12,0,0,0,0,0
1561460885625,50,9,25,0,0,0,0,0
1561460885656.25,54,15,25,0,0,0,0,0
1561460885687.5,57,30,29,0,0,0,0,0
1561460885718.75,49,38,31,0,0,0,0,0
1561460885750,41,44,31,0,0,0,0,0
1561460885781.25,37,44,31,0,0,0,0,0
1561460885812.5,26,37,22,0,0,0,0,0
1561460885843.75,33,28,28,0,0,0,0,0
1561460885875,40,30,47,0,0,0,0,0
1561460885906.25,34,34,61,0,0,0,0,0
1561460885937.5,15,33,53,0,0,0,0,0
1561460885968.75,14,32,41,0,0,0,0,0
1561460886000,39,36,52,0,0,0,0,0
1561460886031.25,38,35,45,0,0,0,0,0
1561460886062.5,35,34,46,0,0,0,0,0
1561460886093.75,60,39,54,0,0,0,0,0
1561460886125,65,33,51,0,0,0,0,0
1561460886156.25,77,11,38,0,0,0,0,0
1561460886187.5,82,2,39,0,0,0,0,0
1561460886218.75,74,-5,21,0,0,0,0,0
1561460886250,72,-13,5,0,0,0,0,0
1561460886281.25,75,-16,10,0,0,0,0,0
1561460886312.5,69,-17,13,0,0,0,0,0
1561460886343.75,59,-6,19,0,0,0,0,0
1561460886375,1,-4,23,0,0,0,0,0
1561460886406.25,7,0,34,0,0,0,0,0
1561460886437.5,14,1,30,0,0,0,0,0
1561460886468.75,38,1,39,0,0,0,0,0
1561460886500,46,0,29,0,0,0,0,0
1561460886531.25,42,-7,15,0,0,0,0,0
1561460886562.5,80,-17,30,0,0,0,0,0
1561460886593.75,59,-22,20,0,0,0,0,0
1561460886625,44,-26,17,0,0,0,0,0
1561460886656.25,49,-33,0,0,0,0,0,0
1561460886687.5,64,-34,1,0,0,0,0,0
1561460886718.75,68,-34,-19,0,0,0,0,0
1561460886750,54,-30,-21,0,0,0,0,0
1561460886781.25,48,-35,-14,0,0,0,0,0
1561460886812.5,47,-37,-7,0,0,0,0,0
1561460886843.75,39,-36,5,0,0,0,0,0
1561460886875,47,-37,6,0,0,0,0,0
1561460886906.25,54,-35,8,0,0,0,0,0
1561460886937.5,57,-30,16,0,0,0,0,0
1561460886968.75,44,-28,19,0,0,0,0,0
1561460887000,28,-28,5,0,0,0,0,0
1561460887031.25,25,-27,7,0,0,0,0,0
1561460887062.5,33,-28,11,0,0,0,0,0
1561460887093.75,73,-29,9,0,0,0,0,0
1561460887125,37,-37,-16,0,0,0,0,0
1561460887156.25,41,-42,-13,0,0,0,0,0
1561460887187.5,84,-37,9,0,0,0,0,0
1561460887218.75,90,-29,18,0,0,0,0,0
1561460887250,33,-10,36,0,0,0,0,0
1561460887281.25,28,10,67,0,0,0,0,0
1561460887312.5,11,21,76,0,0,0,0,0
1561460887343.75,38,17,66,0,0,0,0,0
1561460887375,29,12,57,0,0,0,0,0
1561460887406.25,25,15,47,0,0,0,0,0
1561460887437.5,34,6,46,0,0,0,0,0
1561460887468.75,43,6,47,0,0,0,0,0
1561460887500,41,6,46,0,0,0,0,0
1561460887531.25,35,7,48,0,0,0,0,0
1561460887562.5,34,8,49,0,0,0,0,0
1561460887593.75,38,14,61,0,0,0,0,0
1561460887625,24,19,62,0,0,0,0,0
1561460887656.25,11,20,66,0,0,0,0,0
1561460887687.5,15,22,67,0,0,0,0,0
1561460887718.75,19,19,59,0,0,0,0,0
1561460887750,22,14,53,0,0,0,0,0
1561460887781.25,36,11,51,0,0,0,0,0
1561460887812.5,41,11,50,0,0,0,0,0
1561460887843.75,42,12,49,0,0,0,0,0
1561460887875,40,13,51,0,0,0,0,0
1561460887906.25,35,13,52,0,0,0,0,0
1561460887937.5,31,14,54,0,0,0,0,0
1561460887968.75,29,13,55,0,0,0,0,0
1561460888000,30,13,54,0,0,0,0,0
1561460888031.25,31,12,54,0,0,0,0,0
1561460888062.5,33,12,53,0,0,0,0,0
1561460888093.75,34,13,53,0,0,0,0,0
1561460888125,33,13,52,0,0,0,0,0
1561460888156.25,33,13,52,0,0,0,0,0
1561460888187.5,32,14,53,0,0,0,0,0
1561460888218.75,31,14,53,0,0,0,0,0
1561460888250,32,14,54,0,0,0,0,0
1561460888281.25,32,14,53,0,0,0,0,0
1561460888312.5,31,14,53,0,0,0,0,0
1561460888343.75,32,14,54,0,0,0,0,0
1561460888375,34,13,53,0,0,0,0,0
1561460888406.25,37,9,51,0,0,0,0,0
1561460888437.5,37,9,51,0,0,0,0,0
1561460888468.75,34,13,51,0,0,0,0,0
1561460888500,31,15,51,0,0,0,0,0
1561460888531.25,30,17,53,0,0,0,0,0
1561460888562.5,32,16,54,0,0,0,0,0
1561460888593.75,36,14,54,0,0,0,0,0
1561460888625,38,12,53,0,0,0,0,0
1561460888656.25,37,11,50,0,0,0,0,0
1561460888687.5,35,12,50,0,0,0,0,0
1561460888718.75,31,14,51,0,0,0,0,0
1561460888750,30,16,53,0,0,0,0,0
1561460888781.25,32,16,54,0,0,0,0,0
1561460888812.5,33,15,54,0,0,0,0,0
1561460888843.75,34,14,54,0,0,0,0,0
1561460888875,33,14,52,0,0,0,0,0
1561460888906.25,32,14,52,0,0,0,0,0
1561460888937.5,31,15,53,0,0,0,0,0
1561460888968.75,30,15,53,0,0,0,0,0
1561460889000,29,16,54,0,0,0,0,0
1561460889031.25,30,17,53,0,0,0,0,0
1561460889062.5,32,16,53,0,0,0,0,0
1561460889093.75,33,16,53,0,0,0,0,0
1561460889125,34,16,53,0,0,0,0,0
1561460889156.25,32,16,52,0,0,0,0,0
1561460889187.5,32,15,53,0,0,0,0,0
1561460889218.75,31,15,53,0,0,0,0,0
1561460889250,31,16,53,0,0,0,0,0
1561460889281.25,31,16,54,0,0,0,0,0
1561460889312.5,32,16,53,0,0,0,0,0
1561460889343.75,33,16,53,0,0,0,0,0
1561460889375,32,16,53,0,0,0,0,0
1561460889406.25,31,15,53,0,0,0,0,0
1561460889437.5,30,15,54,0,0,0,0,0
1561460889468.75,29,17,54,0,0,0,0,0
1561460889500,30,17,53,0,0,0,0,0
1561460889531.25,31,17,53,0,0,0,0,0
1561460889562.5,33,15,53,0,0,0,0,0
1561460889593.75,33,15,53,0,0,0,0,0
1561460889625,31,15,54,0,0,0,0,0
1561460889656.25,30,16,54,0,0,0,0,0
1561460889687.5,30,17,53,0,0,0,0,0
1561460889718.75,30,17,53,0,0,0,0,0
1561460889750,32,17,53,0,0,0,0,0
1561460889781.25,31,16,54,0,0,0,0,0
1561460889812.5,30,16,53,0,0,0,0,0
1561460889843.75,29,16,54,0,0,0,0,0
1561460889875,24,18,48,0,0,0,0,0
1561460889906.25,29,16,51,0,0,0,0,0
1561460889937.5,30,16,51,0,0,0,0,0
1561460889968.75,56,18,44,0,0,0,0,0
1561460890000,79,14,40,0,0,0,0,0
1561460890031.25,58,9,20,0,0,0,0,0
1561460890062.5,54,8,12,0,0,0,0,0
1561460890093.75,63,3,-7,0,0,0,0,0
1561460890125,60,1,-20,0,0,0,0,0
1561460890156.25,53,-6,-30,0,0,0,0,0
1561460890187.5,54,-7,-27,0,0,0,0,0
1561460890218.75,50,-13,-30,0,0,0,0,0
1561460890250,48,-17,-31,0,0,0,0,0
1561460890281.25,49,-18,-31,0,0,0,0,0
1561460890312.5,49,-17,-31,0,0,0,0,0
1561460890343.75,47,-16,-30,0,0,0,0,0
1561460890375,50,-14,-30,0,0,0,0,0
1561460890406.25,55,-14,-30,0,0,0,0,0
1561460890437.5,40,-13,-34,0,0,0,0,0
1561460890468.75,44,-11,-28,0,0,0,0,0
1561460890500,51,-14,-34,0,0,0,0,0
1561460890531.25,51,-17,-41,0,0,0,0,0
1561460890562.5,52,-17,-38,0,0,0,0,0
1561460890593.75,55,-15,-35,0,0,0,0,0
1561460890625,49,-12,-31,0,0,0,0,0
1561460890656.25,43,-13,-33,0,0,0,0,0
1561460890687.5,47,-15,-33,0,0,0,0,0
1561460890718.75,50,-15,-28,0,0,0,0,0
1561460890750,46,-16,-32,0,0,0,0,0
1561460890781.25,54,-17,-28,0,0,0,0,0
1561460890812.5,58,-14,-24,0,0,0,0,0
1561460890843.75,52,-13,-27,0,0,0,0,0
1561460890875,54,-13,-29,0,0,0,0,0
1561460890906.25,51,-14,-31,0,0,0,0,0
1561460890937.5,51,-14,-29,0,0,0,0,0
1561460890968.75,52,-15,-29,0,0,0,0,0
1561460891000,53,-16,-28,0,0,0,0,0
1561460891031.25,52,-16,-29,0,0,0,0,0
1561460891062.5,51,-15,-26,0,0,0,0,0
1561460891093.75,51,-14,-26,0,0,0,0,0
1561460891125,57,-14,-27,0,0,0,0,0
1561460891156.25,56,-14,-27,0,0,0,0,0
1561460891187.5,52,-14,-24,0,0,0,0,0
1561460891218.75,54,-14,-24,0,0,0,0,0
1561460891250,55,-15,-27,0,0,0,0,0
1561460891281.25,54,-15,-26,0,0,0,0,0
1561460891312.5,51,-15,-25,0,0,0,0,0
1561460891343.75,55,-14,-24,0,0,0,0,0
1561460891375,53,-14,-26,0,0,0,0,0
1561460891406.25,53,-14,-24,0,0,0,0,0
1561460891437.5,55,-14,-25,0,0,0,0,0
1561460891468.75,54,-15,-26,0,0,0,0,0
1561460891500,56,-15,-26,0,0,0,0,0
1561460891531.25,54,-14,-23,0,0,0,0,0
1561460891562.5,53,-14,-23,0,0,0,0,0
1561460891593.75,54,-14,-26,0,0,0,0,0
1561460891625,56,-15,-26,0,0,0,0,0
1561460891656.25,53,-15,-24,0,0,0,0,0
1561460891687.5,52,-14,-24,0,0,0,0,0
1561460891718.75,56,-15,-25,0,0,0,0,0
1561460891750,56,-15,-25,0,0,0,0,0
1561460891781.25,54,-14,-24,0,0,0,0,0
1561460891812.5,53,-14,-24,0,0,0,0,0
1561460891843.75,56,-15,-25,0,0,0,0,0
1561460891875,55,-14,-23,0,0,0,0,0
1561460891906.25,52,-14,-24,0,0,0,0,0
1561460891937.5,54,-14,-24,0,0,0,0,0
1561460891968.75,55,-15,-23,0,0,0,0,0
1561460892000,50,-14,-23,0,0,0,0,0
1561460892031.25,51,-14,-23,0,0,0,0,0
1561460892062.5,49,-13,-23,0,0,0,0,0
1561460892093.75,31,-11,-28,0,0,0,0,0
1561460892125,59,-10,-25,0,0,0,0,0
1561460892156.25,74,-15,-32,0,0,0,0,0
1561460892187.5,47,-12,-52,0,0,0,0,0
1561460892218.75,46,-10,-47,0,0,0,0,0
1561460892250,45,-7,-45,0,0,0,0,0
1561460892281.25,43,-7,-48,0,0,0,0,0
1561460892312.5,43,-8,-44,0,0,0,0,0
1561460892343.75,43,-9,-42,0,0,0,0,0
1561460892375,42,-10,-42,0,0,0,0,0
1561460892406.25,42,-9,-40,0,0,0,0,0
1561460892437.5,44,-9,-38,0,0,0,0,0
1561460892468.75,48,-6,-38,0,0,0,0,0
1561460892500,49,-7,-39,0,0,0,0,0
1561460892531.25,46,-7,-40,0,0,0,0,0
1561460892562.5,48,-7,-38,0,0,0,0,0
1561460892593.75,47,-7,-38,0,0,0,0,0
1561460892625,48,-7,-37,0,0,0,0,0
1561460892656.25,47,-8,-40,0,0,0,0,0
1561460892687.5,47,-8,-41,0,0,0,0,0
1561460892718.75,46,-7,-40,0,0,0,0,0
1561460892750,45,-7,-39,0,0,0,0,0
1561460892781.25,49,-6,-36,0,0,0,0,0
1561460892812.5,48,-8,-39,0,0,0,0,0
1561460892843.75,50,-8,-39,0,0,0,0,0
1561460892875,42,-7,-38,0,0,0,0,0
1561460892906.25,47,-8,-37,0,0,0,0,0
1561460892937.5,47,-9,-40,0,0,0,0,0
1561460892968.75,48,-8,-39,0,0,0,0,0
1561460893000,48,-9,-42,0,0,0,0,0
1561460893031.25,46,-8,-41,0,0,0,0,0
1561460893062.5,45,-7,-38,0,0,0,0,0
1561460893093.75,44,-8,-39,0,0,0,0,0
1561460893125,46,-7,-35,0,0,0,0,0
1561460893156.25,49,-8,-35,0,0,0,0,0
1561460893187.5,48,-8,-35,0,0,0,0,0
1561460893218.75,48,-8,-38,0,0,0,0,0
1561460893250,49,-8,-38,0,0,0,0,0
1561460893281.25,48,-7,-39,0,0,0,0,0
1561460893312.5,49,-7,-38,0,0,0,0,0
1561460893343.75,48,-7,-38,0,0,0,0,0
1561460893375,48,-8,-39,0,0,0,0,0
1561460893406.25,48,-7,-36,0,0,0,0,0
1561460893437.5,47,-8,-36,0,0,0,0,0
1561460893468.75,47,-7,-36,0,0,0,0,0
1561460893500,47,-7,-36,0,0,0,0,0
1561460893531.25,47,-7,-37,0,0,0,0,0
1561460893562.5,51,-5,-33,0,0,0,0,0
1561460893593.75,52,-8,-39,0,0,0,0,0
1561460893625,46,-8,-44,0,0,0,0,0
1561460893656.25,46,-7,-42,0,0,0,0,0
1561460893687.5,48,-8,-39,0,0,0,0,0
1561460893718.75,46,-7,-36,0,0,0,0,0
1561460893750,44,-6,-45,0,0,0,0,0
1561460893781.25,48,-6,-41,0,0,0,0,0
1561460893812.5,50,-2,-39,0,0,0,0,0
1561460893843.75,47,-6,-39,0,0,0,0,0
1561460893875,44,-8,-41,0,0,0,0,0
1561460893906.25,45,-8,-36,0,0,0,0,0
1561460893937.5,45,-7,-37,0,0,0,0,0
1561460893968.75,44,-7,-41,0,0,0,0,0
1561460894000,44,-7,-41,0,0,0,0,0
1561460894031.25,45,-7,-41,0,0,0,0,0
1561460894062.5,46,-8,-41,0,0,0,0,0
1561460894093.75,46,-8,-41,0,0,0,0,0
1561460894125,47,-7,-41,0,0,0,0,0
1561460894156.25,48,-7,-39,0,0,0,0,0
1561460894187.5,48,-7,-38,0,0,0,0,0
1561460894218.75,47,-6,-37,0,0,0,0,0
1561460894250,47,-6,-36,0,0,0,0,0
1561460894281.25,47,-8,-37,0,0,0,0,0
1561460894312.5,47,-7,-38,0,0,0,0,0
1561460894343.75,47,-7,-38,0,0,0,0,0
1561460894375,49,-6,-38,0,0,0,0,0
1561460894406.25,49,-5,-38,0,0,0,0,0
1561460894437.5,50,-6,-38,0,0,0,0,0
1561460894468.75,50,-6,-37,0,0,0,0,0
1561460894500,50,-5,-34,0,0,0,0,0
1561460894531.25,49,-5,-33,0,0,0,0,0
1561460894562.5,51,-4,-33,0,0,0,0,0
1561460894593.75,51,-4,-33,0,0,0,0,0
1561460894625,51,-6,-34,0,0,0,0,0
1561460894656.25,52,-7,-33,0,0,0,0,0
1561460894687.5,53,-3,-32,0,0,0,0,0
1561460894718.75,51,-2,-31,0,0,0,0,0
1561460894750,51,-5,-31,0,0,0,0,0
1561460894781.25,51,-6,-30,0,0,0,0,0
1561460894812.5,53,-5,-30,0,0,0,0,0
1561460894843.75,54,-4,-29,0,0,0,0,0
1561460894875,56,-2,-28,0,0,0,0,0
1561460894906.25,55,0,-26,0,0,0,0,0
1561460894937.5,55,0,-25,0,0,0,0,0
1561460894968.75,55,-1,-24,0,0,0,0,0
1561460895000,56,-2,-25,0,0,0,0,0
1561460895031.25,56,-2,-25,0,0,0,0,0
1561460895062.5,57,-2,-25,0,0,0,0,0
1561460895093.75,56,-1,-24,0,0,0,0,0
1561460895125,57,1,-24,0,0,0,0,0
1561460895156.25,57,1,-23,0,0,0,0,0
1561460895187.5,57,1,-22,0,0,0,0,0
1561460895218.75,57,1,-22,0,0,0,0,0
1561460895250,58,1,-21,0,0,0,0,0
1561460895281.25,58,1,-21,0,0,0,0,0
1561460895312.5,58,1,-21,0,0,0,0,0
1561460895343.75,59,1,-21,0,0,0,0,0
1561460895375,58,1,-22,0,0,0,0,0
1561460895406.25,58,1,-22,0,0,0,0,0
1561460895437.5,57,-1,-23,0,0,0,0,0
1561460895468.75,57,0,-22,0,0,0,0,0
1561460895500,56,0,-23,0,0,0,0,0
1561460895531.25,55,-1,-23,0,0,0,0,0
1561460895562.5,56,0,-22,0,0,0,0,0
1561460895593.75,57,2,-22,0,0,0,0,0
1561460895625,57,1,-22,0,0,0,0,0
1561460895656.25,58,0,-22,0,0,0,0,0
1561460895687.5,58,0,-22,0,0,0,0,0
1561460895718.75,58,0,-23,0,0,0,0,0
1561460895750,57,0,-23,0,0,0,0,0
1561460895781.25,56,0,-22,0,0,0,0,0
1561460895812.5,56,0,-22,0,0,0,0,0
1561460895843.75,56,0,-22,0,0,0,0,0
1561460895875,56,1,-21,0,0,0,0,0
1561460895906.25,57,0,-21,0,0,0,0,0
1561460895937.5,58,-1,-22,0,0,0,0,0
1561460895968.75,59,-2,-23,0,0,0,0,0
1561460896000,59,-2,-23,0,0,0,0,0
1561460896031.25,59,-2,-22,0,0,0,0,0
1561460896062.5,57,1,-20,0,0,0,0,0
1561460896093.75,56,1,-18,0,0,0,0,0
1561460896125,56,2,-15,0,0,0,0,0
1561460896156.25,57,2,-16,0,0,0,0,0
1561460896187.5,60,2,-15,0,0,0,0,0
1561460896218.75,62,1,-15,0,0,0,0,0
1561460896250,62,1,-16,0,0,0,0,0
1561460896281.25,61,1,-16,0,0,0,0,0
1561460896312.5,60,1,-16,0,0,0,0,0
1561460896343.75,58,1,-14,0,0,0,0,0
1561460896375,58,1,-14,0,0,0,0,0
1561460896406.25,59,1,-14,0,0,0,0,0
1561460896437.5,59,0,-15,0,0,0,0,0
1561460896468.75,60,0,-14,0,0,0,0,0
1561460896500,60,0,-15,0,0,0,0,0
1561460896531.25,60,1,-15,0,0,0,0,0
1561460896562.5,60,1,-15,0,0,0,0,0
1561460896593.75,59,1,-15,0,0,0,0,0
1561460896625,60,2,-15,0,0,0,0,0
1561460896656.25,60,1,-14,0,0,0,0,0
1561460896687.5,60,1,-14,0,0,0,0,0
1561460896718.75,60,1,-14,0,0,0,0,0
1561460896750,60,1,-14,0,0,0,0,0
1561460896781.25,60,1,-14,0,0,0,0,0
1561460896812.5,60,1,-14,0,0,0,0,0
1561460896843.75,60,1,-14,0,0,0,0,0
1561460896875,60,1,-14,0,0,0,0,0
1561460896906.25,60,1,-14,0,0,0,0,0
1561460896937.5,60,1,-13,0,0,0,0,0
1561460896968.75,60,1,-13,0,0,0,0,0
1561460897000,60,2,-12,0,0,0,0,0
1561460897031.25,60,2,-13,0,0,0,0,0
1561460897062.5,61,1,-14,0,0,0,0,0
1561460897093.75,61,0,-14,0,0,0,0,0
1561460897125,60,0,-14,0,0,0,0,0
1561460897156.25,60,0,-13,0,0,0,0,0
1561460897187.5,60,1,-12,0,0,0,0,0
1561460897218.75,61,2,-11,0,0,0,0,0
1561460897250,60,2,-10,0,0,0,0,0
1561460897281.25,59,-1,-11,0,0,0,0,0
1561460897312.5,59,-1,-12,0,0,0,0,0
1561460897343.75,62,1,-8,0,0,0,0,0
1561460897375,64,1,-6,0,0,0,0,0
1561460897406.25,69,2,2,0,0,0,0,0
1561460897437.5,78,1,6,0,0,0,0,0
1561460897468.75,74,0,-1,0,0,0,0,0
1561460897500,49,3,19,0,0,0,0,0
1561460897531.25,41,5,26,0,0,0,0,0
1561460897562.5,31,4,41,0,0,0,0,0
1561460897593.75,33,6,46,0,0,0,0,0
1561460897625,47,8,50,0,0,0,0,0
1561460897656.25,42,8,52,0,0,0,0,0
1561460897687.5,31,8,52,0,0,0,0,0
1561460897718.75,36,7,52,0,0,0,0,0
1561460897750,45,8,47,0,0,0,0,0
1561460897781.25,36,9,48,0,0,0,0,0
1561460897812.5,43,7,51,0,0,0,0,0
1561460897843.75,43,5,47,0,0,0,0,0
1561460897875,44,4,45,0,0,0,0,0
1561460897906.25,45,5,45,0,0,0,0,0
1561460897937.5,42,4,44,0,0,0,0,0
1561460897968.75,44,4,45,0,0,0,0,0
1561460898000,44,4,46,0,0,0,0,0
1561460898031.25,41,5,45,0,0,0,0,0
1561460898062.5,43,6,47,0,0,0,0,0
1561460898093.75,42,6,47,0,0,0,0,0
1561460898125,41,5,46,0,0,0,0,0
1561460898156.25,44,5,48,0,0,0,0,0
1561460898187.5,42,5,47,0,0,0,0,0
1561460898218.75,43,5,46,0,0,0,0,0
1561460898250,43,6,48,0,0,0,0,0
1561460898281.25,41,5,49,0,0,0,0,0
1561460898312.5,40,4,47,0,0,0,0,0
1561460898343.75,36,4,44,0,0,0,0,0
1561460898375,39,5,45,0,0,0,0,0
1561460898406.25,40,7,46,0,0,0,0,0
1561460898437.5,42,9,52,0,0,0,0,0
1561460898468.75,41,9,52,0,0,0,0,0
1561460898500,39,9,49,0,0,0,0,0
1561460898531.25,40,9,49,0,0,0,0,0
1561460898562.5,41,7,47,0,0,0,0,0
1561460898593.75,41,7,47,0,0,0,0,0
1561460898625,41,7,47,0,0,0,0,0
1561460898656.25,43,9,48,0,0,0,0,0
1561460898687.5,41,10,48,0,0,0,0,0
1561460898718.75,40,10,48,0,0,0,0,0
1561460898750,40,10,49,0,0,0,0,0
1561460898781.25,38,9,48,0,0,0,0,0
1561460898812.5,38,9,48,0,0,0,0,0
1561460898843.75,40,9,48,0,0,0,0,0
1561460898875,40,10,47,0,0,0,0,0
1561460898906.25,41,11,48,0,0,0,0,0
1561460898937.5,41,11,48,0,0,0,0,0
1561460898968.75,41,10,49,0,0,0,0,0
1561460899000,40,10,49,0,0,0,0,0
1561460899031.25,40,10,49,0,0,0,0,0
1561460899062.5,39,10,49,0,0,0,0,0
1561460899093.75,40,10,49,0,0,0,0,0
1561460899125,39,10,48,0,0,0,0,0
1561460899156.25,39,10,48,0,0,0,0,0
1561460899187.5,40,10,48,0,0,0,0,0
1561460899218.75,40,9,48,0,0,0,0,0
1561460899250,40,10,49,0,0,0,0,0
1561460899281.25,40,10,48,0,0,0,0,0
1561460899312.5,39,10,48,0,0,0,0,0
1561460899343.75,40,10,48,0,0,0,0,0
1561460899375,40,10,48,0,0,0,0,0
1561460899406.25,41,10,48,0,0,0,0,0
1561460899437.5,40,10,48,0,0,0,0,0
1561460899468.75,40,10,49,0,0,0,0,0
1561460899500,40,10,48,0,0,0,0,0
1561460899531.25,40,10,48,0,0,0,0,0
1561460899562.5,40,10,48,0,0,0,0,0
1561460899593.75,40,10,48,0,0,0,0,0
1561460899625,40,10,48,0,0,0,0,0
1561460899656.25,40,10,48,0,0,0,0,0
1561460899687.5,40,10,49,0,0,0,0,0
1561460899718.75,39,10,48,0,0,0,0,0
1561460899750,40,10,49,0,0,0,0,0
1561460899781.25,39,10,49,0,0,0,0,0
1561460899812.5,38,10,48,0,0,0,0,0
1561460899843.75,40,10,49,0,0,0,0,0
1561460899875,40,10,48,0,0,0,0,0
1561460899906.25,40,10,48,0,0,0,0,0
1561460899937.5,40,10,49,0,0,0,0,0
1561460899968.75,39,10,49,0,0,0,0,0
1561460900000,40,11,48,0,0,0,0,0
1561460900031.25,40,11,49,0,0,0,0,0
1561460900062.5,39,10,49,0,0,0,0,0
1561460900093.75,39,10,49,0,0,0,0,0
1561460900125,39,10,48,0,0,0,0,0
1561460900156.25,40,10,48,0,0,0,0,0
1561460900187.5,39,10,49,0,0,0,0,0
1561460900218.75,39,10,48,0,0,0,0,0
1561460900250,40,10,49,0,0,0,0,0
1561460900281.25,40,10,49,0,0,0,0,0
1561460900312.5,40,10,48,0,0,0,0,0
1561460900343.75,41,10,48,0,0,0,0,0
1561460900375,40,10,48,0,0,0,0,0
1561460900406.25,39,10,49,0,0,0,0,0
1561460900437.5,39,10,48,0,0,0,0,0
1561460900468.75,40,10,49,0,0,0,0,0
1561460900500,40,10,49,0,0,0,0,0
1561460900531.25,40,10,48,0,0,0,0,0
1561460900562.5,40,10,49,0,0,0,0,0
1561460900593.75,40,9,49,0,0,0,0,0
1561460900625,40,9,48,0,0,0,0,0
1561460900656.25,40,9,48,0,0,0,0,0
1561460900687.5,40,9,48,0,0,0,0,0
1561460900718.75,40,9,48,0,0,0,0,0
1561460900750,41,9,48,0,0,0,0,0
1561460900781.25,40,10,48,0,0,0,0,0
1561460900812.5,40,10,48,0,0,0,0,0
1561460900843.75,41,9,48,0,0,0,0,0
1561460900875,40,9,48,0,0,0,0,0
1561460900906.25,41,8,48,0,0,0,0,0
1561460900937.5,41,8,47,0,0,0,0,0
1561460900968.75,42,9,47,0,0,0,0,0
1561460901000,41,9,46,0,0,0,0,0
1561460901031.25,41,9,46,0,0,0,0,0
1561460901062.5,42,8,47,0,0,0,0,0
1561460901093.75,42,8,47,0,0,0,0,0
1561460901125,42,8,48,0,0,0,0,0
1561460901156.25,41,8,47,0,0,0,0,0
1561460901187.5,41,8,47,0,0,0,0,0
1561460901218.75,41,9,47,0,0,0,0,0
1561460901250,41,9,47,0,0,0,0,0
1561460901281.25,41,9,47,0,0,0,0,0
1561460901312.5,42,9,47,0,0,0,0,0
1561460901343.75,42,9,47,0,0,0,0,0
1561460901375,42,9,47,0,0,0,0,0
1561460901406.25,42,9,47,0,0,0,0,0
1561460901437.5,41,9,47,0,0,0,0,0
1561460901468.75,41,9,47,0,0,0,0,0
1561460901500,41,9,48,0,0,0,0,0
1561460901531.25,41,9,48,0,0,0,0,0
1561460901562.5,42,9,48,0,0,0,0,0
1561460901593.75,42,9,47,0,0,0,0,0
1561460901625,42,9,47,0,0,0,0,0
1561460901656.25,41,8,47,0,0,0,0,0
1561460901687.5,37,8,47,0,0,0,0,0
1561460901718.75,37,9,47,0,0,0,0,0
1561460901750,38,9,47,0,0,0,0,0
1561460901781.25,39,10,48,0,0,0,0,0
1561460901812.5,42,11,49,0,0,0,0,0
1561460901843.75,44,11,50,0,0,0,0,0
1561460901875,42,11,48,0,0,0,0,0
1561460901906.25,41,11,48,0,0,0,0,0
1561460901937.5,39,12,49,0,0,0,0,0
1561460901968.75,38,12,50,0,0,0,0,0
1561460902000,36,10,49,0,0,0,0,0
1561460902031.25,33,8,49,0,0,0,0,0
1561460902062.5,33,8,48,0,0,0,0,0
1561460902093.75,36,11,49,0,0,0,0,0
1561460902125,38,12,50,0,0,0,0,0
1561460902156.25,40,14,50,0,0,0,0,0
1561460902187.5,42,14,51,0,0,0,0,0
1561460902218.75,41,15,50,0,0,0,0,0
1561460902250,40,15,50,0,0,0,0,0
1561460902281.25,37,13,49,0,0,0,0,0
1561460902312.5,35,13,49,0,0,0,0,0
1561460902343.75,34,13,50,0,0,0,0,0
1561460902375,34,13,52,0,0,0,0,0
1561460902406.25,34,13,52,0,0,0,0,0
1561460902437.5,35,15,52,0,0,0,0,0
1561460902468.75,35,16,52,0,0,0,0,0
1561460902500,29,16,50,0,0,0,0,0
1561460902531.25,28,16,50,0,0,0,0,0
1561460902562.5,39,18,54,0,0,0,0,0
1561460902593.75,41,17,53,0,0,0,0,0
1561460902625,38,14,47,0,0,0,0,0
1561460902656.25,39,14,46,0,0,0,0,0
1561460902687.5,41,13,46,0,0,0,0,0
1561460902718.75,41,14,45,0,0,0,0,0
1561460902750,42,15,46,0,0,0,0,0
1561460902781.25,40,15,47,0,0,0,0,0
1561460902812.5,40,14,47,0,0,0,0,0
1561460902843.75,39,14,47,0,0,0,0,0
1561460902875,40,14,48,0,0,0,0,0
1561460902906.25,39,14,48,0,0,0,0,0
1561460902937.5,39,14,48,0,0,0,0,0
1561460902968.75,39,15,48,0,0,0,0,0
1561460903000,38,15,48,0,0,0,0,0
1561460903031.25,39,14,48,0,0,0,0,0
1561460903062.5,39,14,48,0,0,0,0,0
1561460903093.75,38,13,48,0,0,0,0,0
1561460903125,39,13,48,0,0,0,0,0
1561460903156.25,39,14,48,0,0,0,0,0
1561460903187.5,40,14,48,0,0,0,0,0
1561460903218.75,39,15,49,0,0,0,0,0
1561460903250,36,17,50,0,0,0,0,0
1561460903281.25,36,17,50,0,0,0,0,0
1561460903312.5,37,20,52,0,0,0,0,0
1561460903343.75,36,22,53,0,0,0,0,0
1561460903375,28,32,48,0,0,0,0,0
1561460903406.25,24,36,29,0,0,0,0,0
1561460903437.5,84,18,-18,0,0,0,0,0
1561460903468.75,106,-6,-24,0,0,0,0,0
1561460903500,72,9,-14,0,0,0,0,0
1561460903531.25,38,4,-53,0,0,0,0,0
1561460903562.5,19,0,-54,0,0,0,0,0
1561460903593.75,5,-23,-34,0,0,0,0,0
1561460903625,9,24,-57,0,0,0,0,0
1561460903656.25,4,-78,-58,0,0,0,0,0
1561460903687.5,22,-10,-52,0,0,0,0,0
1561460903718.75,23,-51,-45,0,0,0,0,0
1561460903750,18,-76,-49,0,0,0,0,0
1561460903781.25,52,-40,-86,0,0,0,0,0
1561460903812.5,44,-25,-65,0,0,0,0,0
1561460903843.75,32,-5,-35,0,0,0,0,0
1561460903875,33,-5,-46,0,0,0,0,0
1561460903906.25,40,-6,-56,0,0,0,0,0
1561460903937.5,34,-3,-42,0,0,0,0,0
1561460903968.75,37,-5,-45,0,0,0,0,0
1561460904000,47,-7,-45,0,0,0,0,0
1561460904031.25,53,-6,-40,0,0,0,0,0
