Timestamp,ACC_X,ACC_Y,ACC_Z,Note,AGG,ED,SIB,Condition
1570468197000,-59,5,-16,0,0,0,0,0
1570468197031.25,-63,5,-17,0,0,0,0,0
1570468197062.5,-64,5,-16,0,0,0,0,0
1570468197093.75,-62,5,-15,0,0,0,0,0
1570468197125,-61,5,-16,0,0,0,0,0
1570468197156.25,-61,5,-15,0,0,0,0,0
1570468197187.5,-60,5,-15,0,0,0,0,0
1570468197218.75,-61,5,-15,0,0,0,0,0
1570468197250,-61,4,-16,0,0,0,0,0
1570468197281.25,-62,4,-16,0,0,0,0,0
1570468197312.5,-62,4,-16,0,0,0,0,0
1570468197343.75,-62,4,-16,0,0,0,0,0
1570468197375,-62,4,-16,0,0,0,0,0
1570468197406.25,-61,4,-16,0,0,0,0,0
1570468197437.5,-61,5,-15,0,0,0,0,0
1570468197468.75,-61,5,-15,0,0,0,0,0
1570468197500,-61,5,-15,0,0,0,0,0
1570468197531.25,-62,5,-16,0,0,0,0,0
1570468197562.5,-62,5,-16,0,0,0,0,0
1570468197593.75,-62,5,-16,0,0,0,0,0
1570468197625,-62,5,-16,0,0,0,0,0
1570468197656.25,-62,5,-16,0,0,0,0,0
1570468197687.5,-61,5,-16,0,0,0,0,0
1570468197718.75,-61,5,-16,0,0,0,0,0
1570468197750,-61,5,-15,0,0,0,0,0
1570468197781.25,-61,5,-15,0,0,0,0,0
1570468197812.5,-61,5,-16,0,0,0,0,0
1570468197843.75,-62,5,-16,0,0,0,0,0
1570468197875,-61,5,-16,0,0,0,0,0
1570468197906.25,-61,5,-16,0,0,0,0,0
1570468197937.5,-61,5,-16,0,0,0,0,0
1570468197968.75,-62,5,-16,0,0,0,0,0
1570468198000,-61,5,-16,0,0,0,0,0
1570468198031.25,-61,5,-16,0,0,0,0,0
1570468198062.5,-61,5,-16,0,0,0,0,0
1570468198093.75,-64,5,-18,0,0,0,0,0
1570468198125,-64,3,-15,0,0,0,0,0
1570468198156.25,-62,4,-13,0,0,0,0,0
1570468198187.5,-61,6,-12,0,0,0,0,0
1570468198218.75,-60,6,-11,0,0,0,0,0
1570468198250,-60,5,-10,0,0,0,0,0
1570468198281.25,-60,5,-10,0,0,0,0,0
1570468198312.5,-61,6,-11,0,0,0,0,0
1570468198343.75,-62,8,-16,0,0,0,0,0
1570468198375,-57,4,-7,0,0,0,0,0
1570468198406.25,-65,4,-10,0,0,0,0,0
1570468198437.5,-65,4,-12,0,0,0,0,0
1570468198468.75,-65,4,-13,0,0,0,0,0
1570468198500,-63,5,-12,0,0,0,0,0
1570468198531.25,-61,5,-12,0,0,0,0,0
1570468198562.5,-61,5,-11,0,0,0,0,0
1570468198593.75,-61,4,-12,0,0,0,0,0
1570468198625,-61,4,-12,0,0,0,0,0
1570468198656.25,-61,4,-12,0,0,0,0,0
1570468198687.5,-62,4,-13,0,0,0,0,0
1570468198718.75,-63,4,-13,0,0,0,0,0
1570468198750,-63,4,-13,0,0,0,0,0
1570468198781.25,-64,4,-13,0,0,0,0,0
1570468198812.5,-62,5,-13,0,0,0,0,0
1570468198843.75,-61,5,-13,0,0,0,0,0
1570468198875,-62,4,-13,0,0,0,0,0
1570468198906.25,-62,4,-12,0,0,0,0,0
1570468198937.5,-62,4,-13,0,0,0,0,0
1570468198968.75,-61,4,-13,0,0,0,0,0
1570468199000,-62,4,-13,0,0,0,0,0
1570468199031.25,-62,4,-14,0,0,0,0,0
1570468199062.5,-62,4,-14,0,0,0,0,0
1570468199093.75,-62,4,-13,0,0,0,0,0
1570468199125,-62,4,-14,0,0,0,0,0
1570468199156.25,-62,4,-14,0,0,0,0,0
1570468199187.5,-63,4,-14,0,0,0,0,0
1570468199218.75,-62,4,-14,0,0,0,0,0
1570468199250,-62,4,-14,0,0,0,0,0
1570468199281.25,-62,4,-14,0,0,0,0,0
1570468199312.5,-62,4,-14,0,0,0,0,0
1570468199343.75,-62,4,-14,0,0,0,0,0
1570468199375,-61,4,-14,0,0,0,0,0
1570468199406.25,-62,4,-15,0,0,0,0,0
1570468199437.5,-62,4,-14,0,0,0,0,0
1570468199468.75,-63,4,-15,0,0,0,0,0
1570468199500,-62,4,-15,0,0,0,0,0
1570468199531.25,-62,5,-15,0,0,0,0,0
1570468199562.5,-62,5,-14,0,0,0,0,0
1570468199593.75,-62,5,-15,0,0,0,0,0
1570468199625,-62,4,-15,0,0,0,0,0
1570468199656.25,-62,4,-14,0,0,0,0,0
1570468199687.5,-62,4,-14,0,0,0,0,0
1570468199718.75,-61,4,-14,0,0,0,0,0
1570468199750,-61,4,-14,0,0,0,0,0
1570468199781.25,-62,4,-14,0,0,0,0,0
1570468199812.5,-62,4,-14,0,0,0,0,0
1570468199843.75,-62,4,-14,0,0,0,0,0
1570468199875,-62,3,-14,0,0,0,0,0
1570468199906.25,-62,3,-14,0,0,0,0,0
1570468199937.5,-61,2,-13,0,0,0,0,0
1570468199968.75,-61,3,-13,0,0,0,0,0
1570468200000,-67,5,-15,0,0,0,0,0
1570468200031.25,-67,11,-17,0,0,0,0,0
1570468200062.5,-66,8,-15,0,0,0,0,0
1570468200093.75,-70,6,-21,0,0,0,0,0
1570468200125,-65,5,-13,0,0,0,0,0
1570468200156.25,-68,7,-13,0,0,0,0,0
1570468200187.5,-64,7,-10,0,0,0,0,0
1570468200218.75,-54,3,1,0,0,0,0,0
1570468200250,-56,5,0,0,0,0,0,0
1570468200281.25,-57,9,5,0,0,0,0,0
1570468200312.5,-56,12,7,0,0,0,0,0
1570468200343.75,-62,12,7,0,0,0,0,0
1570468200375,-64,12,8,0,0,0,0,0
1570468200406.25,-67,10,0,0,0,0,0,0
1570468200437.5,-71,7,-3,0,0,0,0,0
1570468200468.75,-66,6,1,0,0,0,0,0
1570468200500,-53,12,13,0,0,0,0,0
1570468200531.25,-53,13,16,0,0,0,0,0
1570468200562.5,-52,16,16,0,0,0,0,0
1570468200593.75,-54,15,17,0,0,0,0,0
1570468200625,-60,13,19,0,0,0,0,0
1570468200656.25,-62,13,20,0,0,0,0,0
1570468200687.5,-58,13,19,0,0,0,0,0
1570468200718.75,-57,15,18,0,0,0,0,0
1570468200750,-57,16,19,0,0,0,0,0
1570468200781.25,-59,16,18,0,0,0,0,0
1570468200812.5,-58,14,19,0,0,0,0,0
1570468200843.75,-66,12,14,0,0,0,0,0
1570468200875,-64,11,15,0,0,0,0,0
1570468200906.25,-60,12,15,0,0,0,0,0
1570468200937.5,-60,18,15,0,0,0,0,0
1570468200968.75,-66,16,23,0,0,0,0,0
1570468201000,-66,17,20,0,0,0,0,0
1570468201031.25,-65,18,18,0,0,0,0,0
1570468201062.5,-60,15,19,0,0,0,0,0
1570468201093.75,-54,12,21,0,0,0,0,0
1570468201125,-54,12,21,0,0,0,0,0
1570468201156.25,-54,11,19,0,0,0,0,0
1570468201187.5,-55,10,19,0,0,0,0,0
1570468201218.75,-57,2,21,0,0,0,0,0
1570468201250,-56,5,24,0,0,0,0,0
1570468201281.25,-54,4,26,0,0,0,0,0
1570468201312.5,-55,8,27,0,0,0,0,0
1570468201343.75,-58,11,27,0,0,0,0,0
1570468201375,-58,11,22,0,0,0,0,0
1570468201406.25,-51,10,14,0,0,0,0,0
1570468201437.5,-53,2,17,0,0,0,0,0
1570468201468.75,-50,0,24,0,0,0,0,0
1570468201500,-52,-4,25,0,0,0,0,0
1570468201531.25,-54,-6,22,0,0,0,0,0
1570468201562.5,-59,-17,22,0,0,0,0,0
1570468201593.75,-60,-19,23,0,0,0,0,0
1570468201625,-65,-20,27,0,0,0,0,0
1570468201656.25,-73,-18,18,0,0,0,0,0
1570468201687.5,-73,-14,17,0,0,0,0,0
1570468201718.75,-62,-4,16,0,0,0,0,0
1570468201750,-58,0,15,0,0,0,0,0
1570468201781.25,-59,-3,14,0,0,0,0,0
1570468201812.5,-61,-6,14,0,0,0,0,0
1570468201843.75,-66,-9,16,0,0,0,0,0
1570468201875,-64,-9,18,0,0,0,0,0
1570468201906.25,-52,-9,21,0,0,0,0,0
1570468201937.5,-51,-9,19,0,0,0,0,0
1570468201968.75,-52,-14,20,0,0,0,0,0
1570468202000,-52,-15,19,0,0,0,0,0
1570468202031.25,-54,-16,18,0,0,0,0,0
1570468202062.5,-52,-24,18,0,0,0,0,0
1570468202093.75,-53,-22,13,0,0,0,0,0
1570468202125,-74,-19,0,0,0,0,0,0
1570468202156.25,-81,-15,-4,0,0,0,0,0
1570468202187.5,-68,-9,6,0,0,0,0,0
1570468202218.75,-68,-12,10,0,0,0,0,0
1570468202250,-68,-16,3,0,0,0,0,0
1570468202281.25,-65,-16,1,0,0,0,0,0
1570468202312.5,-60,-10,-1,0,0,0,0,0
1570468202343.75,-58,-7,1,0,0,0,0,0
1570468202375,-58,0,3,0,0,0,0,0
1570468202406.25,-60,-1,3,0,0,0,0,0
1570468202437.5,-65,1,2,0,0,0,0,0
1570468202468.75,-68,3,2,0,0,0,0,0
1570468202500,-68,3,2,0,0,0,0,0
1570468202531.25,-68,0,0,0,0,0,0,0
1570468202562.5,-66,-2,0,0,0,0,0,0
1570468202593.75,-66,-1,1,0,0,0,0,0
1570468202625,-61,0,4,0,0,0,0,0
1570468202656.25,-62,0,4,0,0,0,0,0
1570468202687.5,-62,1,5,0,0,0,0,0
1570468202718.75,-62,2,6,0,0,0,0,0
1570468202750,-60,3,5,0,0,0,0,0
1570468202781.25,-60,3,5,0,0,0,0,0
1570468202812.5,-63,2,5,0,0,0,0,0
1570468202843.75,-64,1,5,0,0,0,0,0
1570468202875,-63,2,6,0,0,0,0,0
1570468202906.25,-61,2,5,0,0,0,0,0
1570468202937.5,-62,1,3,0,0,0,0,0
1570468202968.75,-63,0,3,0,0,0,0,0
1570468203000,-65,-2,4,0,0,0,0,0
1570468203031.25,-64,-1,5,0,0,0,0,0
1570468203062.5,-64,0,4,0,0,0,0,0
1570468203093.75,-63,1,4,0,0,0,0,0
1570468203125,-64,0,3,0,0,0,0,0
1570468203156.25,-64,1,3,0,0,0,0,0
1570468203187.5,-65,1,3,0,0,0,0,0
1570468203218.75,-64,0,3,0,0,0,0,0
1570468203250,-63,0,4,0,0,0,0,0
1570468203281.25,-63,-1,6,0,0,0,0,0
1570468203312.5,-59,1,8,0,0,0,0,0
1570468203343.75,-59,-1,4,0,0,0,0,0
1570468203375,-60,-1,4,0,0,0,0,0
1570468203406.25,-64,-2,3,0,0,0,0,0
1570468203437.5,-65,-1,4,0,0,0,0,0
1570468203468.75,-65,0,4,0,0,0,0,0
1570468203500,-64,0,4,0,0,0,0,0
1570468203531.25,-63,-1,3,0,0,0,0,0
1570468203562.5,-64,-1,2,0,0,0,0,0
1570468203593.75,-64,-1,2,0,0,0,0,0
1570468203625,-63,0,3,0,0,0,0,0
1570468203656.25,-64,0,2,0,0,0,0,0
1570468203687.5,-62,-1,3,0,0,0,0,0
1570468203718.75,-63,-3,1,0,0,0,0,0
1570468203750,-65,-3,3,0,0,0,0,0
1570468203781.25,-66,-2,2,0,0,0,0,0
1570468203812.5,-69,-3,3,0,0,0,0,0
1570468203843.75,-65,-1,4,0,0,0,0,0
1570468203875,-65,-2,3,0,0,0,0,0
1570468203906.25,-64,-1,6,0,0,0,0,0
1570468203937.5,-61,0,6,0,0,0,0,0
1570468203968.75,-61,0,6,0,0,0,0,0
1570468204000,-59,1,8,0,0,0,0,0
1570468204031.25,-61,1,12,0,0,0,0,0
1570468204062.5,-57,-6,22,0,0,0,0,0
1570468204093.75,-75,-3,17,0,0,0,0,0
1570468204125,-74,-3,10,0,0,0,0,0
1570468204156.25,-63,-3,5,0,0,0,0,0
1570468204187.5,-65,-7,13,0,0,0,0,0
1570468204218.75,-65,-16,28,0,0,0,0,0
1570468204250,-75,-3,21,0,0,0,0,0
1570468204281.25,-41,18,7,0,0,0,0,0
1570468204312.5,-48,-4,28,0,0,0,0,0
1570468204343.75,-50,-4,31,0,0,0,0,0
1570468204375,-46,-4,35,0,0,0,0,0
1570468204406.25,-52,-4,34,0,0,0,0,0
1570468204437.5,-56,-3,30,0,0,0,0,0
1570468204468.75,-51,-3,36,0,0,0,0,0
1570468204500,-56,1,34,0,0,0,0,0
1570468204531.25,-57,-4,40,0,0,0,0,0
1570468204562.5,-58,0,41,0,0,0,0,0
1570468204593.75,-54,-2,44,0,0,0,0,0
1570468204625,-49,1,40,0,0,0,0,0
1570468204656.25,-43,2,42,0,0,0,0,0
1570468204687.5,-47,2,37,0,0,0,0,0
1570468204718.75,-50,0,37,0,0,0,0,0
1570468204750,-37,-1,46,0,0,0,0,0
1570468204781.25,-40,-1,48,0,0,0,0,0
1570468204812.5,-39,0,35,0,0,0,0,0
1570468204843.75,-31,-3,41,0,0,0,0,0
1570468204875,-43,-4,41,0,0,0,0,0
1570468204906.25,-43,-4,51,0,0,0,0,0
1570468204937.5,-47,3,41,0,0,0,0,0
1570468204968.75,-51,0,41,0,0,0,0,0
1570468205000,-46,1,44,0,0,0,0,0
1570468205031.25,-53,2,45,0,0,0,0,0
1570468205062.5,-57,1,43,0,0,0,0,0
1570468205093.75,-47,2,43,0,0,0,0,0
1570468205125,-48,2,40,0,0,0,0,0
1570468205156.25,-39,1,39,0,0,0,0,0
1570468205187.5,-30,3,35,0,0,0,0,0
1570468205218.75,-33,2,18,0,0,0,0,0
1570468205250,-39,4,11,0,0,0,0,0
1570468205281.25,-63,-10,20,0,0,0,0,0
1570468205312.5,-78,-8,30,0,0,0,0,0
1570468205343.75,-81,-3,17,0,0,0,0,0
1570468205375,-80,-4,13,0,0,0,0,0
1570468205406.25,-74,-3,10,0,0,0,0,0
1570468205437.5,-70,1,9,0,0,0,0,0
1570468205468.75,-67,3,9,0,0,0,0,0
1570468205500,-65,8,7,0,0,0,0,0
1570468205531.25,-62,5,11,0,0,0,0,0
1570468205562.5,-65,2,11,0,0,0,0,0
1570468205593.75,-62,2,8,0,0,0,0,0
1570468205625,-66,0,7,0,0,0,0,0
1570468205656.25,-64,2,2,0,0,0,0,0
1570468205687.5,-65,5,1,0,0,0,0,0
1570468205718.75,-56,5,3,0,0,0,0,0
1570468205750,-54,10,-2,0,0,0,0,0
1570468205781.25,-53,13,-6,0,0,0,0,0
1570468205812.5,-55,13,-13,0,0,0,0,0
1570468205843.75,-47,11,-18,0,0,0,0,0
1570468205875,-52,9,-17,0,0,0,0,0
1570468205906.25,-90,-8,1,0,0,0,0,0
1570468205937.5,-82,-7,8,0,0,0,0,0
1570468205968.75,-56,5,9,0,0,0,0,0
1570468206000,-65,2,-1,0,0,0,0,0
1570468206031.25,-61,1,2,0,0,0,0,0
1570468206062.5,-62,3,0,0,0,0,0,0
1570468206093.75,-65,4,0,0,0,0,0,0
1570468206125,-65,5,-6,0,0,0,0,0
1570468206156.25,-66,5,-7,0,0,0,0,0
1570468206187.5,-64,4,-4,0,0,0,0,0
1570468206218.75,-65,4,-4,0,0,0,0,0
1570468206250,-66,5,-4,0,0,0,0,0
1570468206281.25,-64,6,-2,0,0,0,0,0
1570468206312.5,-61,8,-2,0,0,0,0,0
1570468206343.75,-59,7,-2,0,0,0,0,0
1570468206375,-62,5,-5,0,0,0,0,0
1570468206406.25,-65,5,-5,0,0,0,0,0
1570468206437.5,-65,2,-2,0,0,0,0,0
1570468206468.75,-66,4,-2,0,0,0,0,0
1570468206500,-65,6,-2,0,0,0,0,0
1570468206531.25,-60,7,1,0,0,0,0,0
1570468206562.5,-62,7,4,0,0,0,0,0
1570468206593.75,-67,6,6,0,0,0,0,0
1570468206625,-67,4,5,0,0,0,0,0
1570468206656.25,-61,2,2,0,0,0,0,0
1570468206687.5,-59,2,1,0,0,0,0,0
1570468206718.75,-60,3,0,0,0,0,0,0
1570468206750,-60,4,1,0,0,0,0,0
1570468206781.25,-63,5,0,0,0,0,0,0
1570468206812.5,-65,6,-1,0,0,0,0,0
1570468206843.75,-66,8,5,0,0,0,0,0
1570468206875,-64,8,3,0,0,0,0,0
1570468206906.25,-62,6,-1,0,0,0,0,0
1570468206937.5,-63,5,2,1,0,0,0,0
1570468206968.75,-64,5,1,1,0,0,0,0
1570468207000,-64,5,0,1,0,0,0,0
1570468207031.25,-65,6,0,1,0,0,0,0
1570468207062.5,-64,7,1,1,0,0,0,0
1570468207093.75,-62,6,2,1,0,0,0,0
1570468207125,-62,7,1,1,0,0,0,0
1570468207156.25,-59,7,2,1,0,0,0,0
1570468207187.5,-61,5,1,1,0,0,0,0
1570468207218.75,-66,5,-1,1,0,0,0,0
1570468207250,-68,3,0,1,0,0,0,0
1570468207281.25,-61,6,5,1,0,0,0,0
1570468207312.5,-62,9,5,1,0,0,0,0
1570468207343.75,-60,7,3,1,0,0,0,0
1570468207375,-60,6,6,1,0,0,0,0
1570468207406.25,-62,6,5,1,0,0,0,0
1570468207437.5,-63,6,3,1,0,0,0,0
1570468207468.75,-65,5,2,1,0,0,0,0
1570468207500,-66,4,2,1,0,0,0,0
1570468207531.25,-65,4,4,1,0,0,0,0
1570468207562.5,-63,5,5,1,0,0,0,0
1570468207593.75,-60,6,3,1,0,0,0,0
1570468207625,-62,7,2,0,0,0,0,0
1570468207656.25,-68,5,2,0,0,0,0,0
1570468207687.5,-69,5,5,0,0,0,0,0
1570468207718.75,-66,6,6,0,0,0,0,0
1570468207750,-63,7,6,0,0,0,0,0
1570468207781.25,-57,7,7,0,0,0,0,0
1570468207812.5,-58,6,8,0,0,0,0,0
1570468207843.75,-60,5,8,0,0,0,0,0
1570468207875,-64,6,7,0,0,0,0,0
1570468207906.25,-62,7,8,0,0,0,0,0
1570468207937.5,-63,7,7,0,0,0,0,0
1570468207968.75,-66,8,5,0,0,0,0,0
1570468208000,-67,10,6,0,0,0,0,0
1570468208031.25,-63,8,4,0,0,0,0,0
1570468208062.5,-63,5,6,0,0,0,0,0
1570468208093.75,-67,4,4,0,0,0,0,0
1570468208125,-70,5,6,0,0,0,0,0
1570468208156.25,-71,5,7,0,0,0,0,0
1570468208187.5,-68,9,5,0,0,0,0,0
1570468208218.75,-59,14,6,0,0,0,0,0
1570468208250,-55,11,14,0,0,0,0,0
1570468208281.25,-52,10,21,0,0,0,0,0
1570468208312.5,-47,8,25,0,0,0,0,0
1570468208343.75,-49,12,19,0,0,0,0,0
1570468208375,-53,9,16,0,0,0,0,0
1570468208406.25,-65,8,13,0,0,0,0,0
1570468208437.5,-70,8,11,0,0,0,0,0
1570468208468.75,-69,13,20,0,0,0,0,0
1570468208500,-60,22,27,0,0,0,0,0
1570468208531.25,-54,17,25,0,0,0,0,0
1570468208562.5,-55,11,24,0,0,0,0,0
1570468208593.75,-50,10,28,0,0,0,0,0
1570468208625,-43,11,27,0,0,0,0,0
1570468208656.25,-50,12,29,0,0,0,0,0
1570468208687.5,-61,13,23,0,0,0,0,0
1570468208718.75,-61,12,30,0,0,0,0,0
1570468208750,-62,14,30,0,0,0,0,0
1570468208781.25,-60,16,28,0,0,0,0,0
1570468208812.5,-51,15,32,0,0,0,0,0
1570468208843.75,-49,15,34,0,0,0,0,0
1570468208875,-49,13,32,0,0,0,0,0
1570468208906.25,-53,7,28,0,0,0,0,0
1570468208937.5,-53,14,30,0,0,0,0,0
1570468208968.75,-50,14,34,0,0,0,0,0
1570468209000,-57,12,34,0,0,0,0,0
1570468209031.25,-52,5,37,0,0,0,0,0
1570468209062.5,-44,1,40,0,0,0,0,0
1570468209093.75,-38,4,34,0,0,0,0,0
1570468209125,-58,4,32,0,0,0,0,0
1570468209156.25,-60,13,39,0,0,0,0,0
1570468209187.5,-59,15,37,0,0,0,0,0
1570468209218.75,-48,10,39,0,0,0,0,0
1570468209250,-45,11,37,0,0,0,0,0
1570468209281.25,-52,4,35,0,0,0,0,0
1570468209312.5,-53,2,34,0,0,0,0,0
1570468209343.75,-51,5,37,0,0,0,0,0
1570468209375,-53,6,38,0,0,0,0,0
1570468209406.25,-52,6,35,0,0,0,0,0
1570468209437.5,-53,5,34,0,0,0,0,0
1570468209468.75,-53,6,36,0,0,0,0,0
1570468209500,-52,9,40,0,0,0,0,0
1570468209531.25,-53,7,41,0,0,0,0,0
1570468209562.5,-52,1,39,0,0,0,0,0
1570468209593.75,-56,2,32,0,0,0,0,0
1570468209625,-51,4,34,0,0,0,0,0
1570468209656.25,-46,7,35,0,0,0,0,0
1570468209687.5,-49,5,38,0,0,0,0,0
1570468209718.75,-49,5,40,0,0,0,0,0
1570468209750,-48,4,42,0,0,0,0,0
1570468209781.25,-49,3,42,0,0,0,0,0
1570468209812.5,-48,2,39,0,0,0,0,0
1570468209843.75,-52,-2,38,0,0,0,0,0
1570468209875,-52,-6,38,0,0,0,0,0
1570468209906.25,-45,0,41,0,0,0,0,0
1570468209937.5,-39,18,51,0,0,0,0,0
1570468209968.75,-45,-1,46,0,0,0,0,0
1570468210000,-43,0,40,0,0,0,0,0
1570468210031.25,-49,-11,42,0,0,0,0,0
1570468210062.5,-52,-16,40,0,0,0,0,0
1570468210093.75,-41,6,38,0,0,0,0,0
1570468210125,-44,2,41,0,0,0,0,0
1570468210156.25,-60,4,37,0,0,0,0,0
1570468210187.5,-59,10,43,0,0,0,0,0
1570468210218.75,-47,14,52,0,0,0,0,0
1570468210250,-48,13,49,0,0,0,0,0
1570468210281.25,-47,14,48,0,0,0,0,0
1570468210312.5,-48,15,42,0,0,0,0,0
1570468210343.75,-53,13,38,0,0,0,0,0
1570468210375,-56,9,34,0,0,0,0,0
1570468210406.25,-54,10,35,0,0,0,0,0
1570468210437.5,-50,21,37,0,0,0,0,0
1570468210468.75,-46,24,36,0,0,0,0,0
1570468210500,-46,21,41,0,0,0,0,0
1570468210531.25,-45,20,41,0,0,0,0,0
1570468210562.5,-32,26,39,0,0,0,0,0
1570468210593.75,-26,20,29,0,0,0,0,0
1570468210625,-32,16,28,0,0,0,0,0
1570468210656.25,-44,11,31,0,0,0,0,0
1570468210687.5,-42,12,37,0,0,0,0,0
1570468210718.75,-52,9,43,0,0,0,0,0
1570468210750,-55,16,47,0,0,0,0,0
1570468210781.25,-55,22,47,0,0,0,0,0
1570468210812.5,-53,20,40,0,0,0,0,0
1570468210843.75,-65,18,30,0,0,0,0,0
1570468210875,-62,18,25,0,0,0,0,0
1570468210906.25,-50,15,32,0,0,0,0,0
1570468210937.5,-51,14,32,0,0,0,0,0
1570468210968.75,-56,14,32,0,0,0,0,0
1570468211000,-54,13,33,0,0,0,0,0
1570468211031.25,-55,12,33,0,0,0,0,0
1570468211062.5,-53,13,31,0,0,0,0,0
1570468211093.75,-50,12,32,0,0,0,0,0
1570468211125,-51,11,32,0,0,0,0,0
1570468211156.25,-53,10,33,0,0,0,0,0
1570468211187.5,-50,11,36,0,0,0,0,0
1570468211218.75,-52,11,38,0,0,0,0,0
1570468211250,-55,8,33,0,0,0,0,0
1570468211281.25,-53,9,34,0,0,0,0,0
1570468211312.5,-53,9,32,0,0,0,0,0
1570468211343.75,-51,11,33,0,0,0,0,0
1570468211375,-52,12,34,0,0,0,0,0
1570468211406.25,-51,12,34,0,0,0,0,0
1570468211437.5,-53,12,34,0,0,0,0,0
1570468211468.75,-54,13,34,0,0,0,0,0
1570468211500,-51,13,34,0,0,0,0,0
1570468211531.25,-52,13,32,0,0,0,0,0
1570468211562.5,-55,13,33,0,0,0,0,0
1570468211593.75,-53,12,35,0,0,0,0,0
1570468211625,-53,12,35,0,0,0,0,0
1570468211656.25,-52,12,33,0,0,0,0,0
1570468211687.5,-53,11,33,0,0,0,0,0
1570468211718.75,-53,10,33,0,0,0,0,0
1570468211750,-51,11,34,0,0,0,0,0
1570468211781.25,-53,10,33,0,0,0,0,0
1570468211812.5,-52,9,33,0,0,0,0,0
1570468211843.75,-52,9,33,0,0,0,0,0
1570468211875,-52,9,33,0,0,0,0,0
1570468211906.25,-54,10,32,0,0,0,0,0
1570468211937.5,-61,15,30,0,0,0,0,0
1570468211968.75,-61,13,31,0,0,0,0,0
1570468212000,-58,12,31,0,0,0,0,0
1570468212031.25,-56,11,32,0,0,0,0,0
1570468212062.5,-50,7,32,0,0,0,0,0
1570468212093.75,-47,6,31,0,0,0,0,0
1570468212125,-50,7,31,0,0,0,0,0
1570468212156.25,-51,8,33,0,0,0,0,0
1570468212187.5,-57,9,33,0,0,0,0,0
1570468212218.75,-59,9,31,0,0,0,0,0
1570468212250,-57,8,30,0,0,0,0,0
1570468212281.25,-55,8,30,0,0,0,0,0
1570468212312.5,-55,7,30,0,0,0,0,0
1570468212343.75,-56,6,32,0,0,0,0,0
1570468212375,-56,5,34,0,0,0,0,0
1570468212406.25,-51,5,34,0,0,0,0,0
1570468212437.5,-49,6,33,0,0,0,0,0
1570468212468.75,-49,8,30,0,0,0,0,0
1570468212500,-62,8,27,0,0,0,0,0
1570468212531.25,-57,5,35,0,0,0,0,0
1570468212562.5,-54,8,31,0,0,0,0,0
1570468212593.75,-50,10,30,0,0,0,0,0
1570468212625,-50,7,28,0,0,0,0,0
1570468212656.25,-53,5,30,0,0,0,0,0
1570468212687.5,-60,5,31,0,0,0,0,0
1570468212718.75,-63,4,33,0,0,0,0,0
1570468212750,-62,2,27,0,0,0,0,0
1570468212781.25,-59,6,27,0,0,0,0,0
1570468212812.5,-55,9,28,0,0,0,0,0
1570468212843.75,-54,9,32,0,0,0,0,0
1570468212875,-52,6,30,0,0,0,0,0
1570468212906.25,-51,3,35,0,0,0,0,0
1570468212937.5,-58,8,22,0,0,0,0,0
1570468212968.75,-54,5,27,0,0,0,0,0
1570468213000,-55,6,27,0,0,0,0,0
1570468213031.25,-64,1,29,0,0,0,0,0
1570468213062.5,-65,5,28,0,0,0,0,0
1570468213093.75,-61,4,33,0,0,0,0,0
1570468213125,-53,7,33,0,0,0,0,0
1570468213156.25,-49,7,33,0,0,0,0,0
1570468213187.5,-52,4,28,0,0,0,0,0
1570468213218.75,-55,3,30,0,0,0,0,0
1570468213250,-57,3,31,0,0,0,0,0
1570468213281.25,-52,3,32,0,0,0,0,0
1570468213312.5,-51,4,31,0,0,0,0,0
1570468213343.75,-56,3,29,0,0,0,0,0
1570468213375,-63,4,25,0,0,0,0,0
1570468213406.25,-57,4,26,0,0,0,0,0
1570468213437.5,-55,2,30,0,0,0,0,0
1570468213468.75,-62,3,28,0,0,0,0,0
1570468213500,-57,5,26,0,0,0,0,0
1570468213531.25,-55,4,29,0,0,0,0,0
1570468213562.5,-56,3,31,0,0,0,0,0
1570468213593.75,-47,5,29,0,0,0,0,0
1570468213625,-53,5,28,0,0,0,0,0
1570468213656.25,-57,2,26,0,0,0,0,0
1570468213687.5,-64,5,24,0,0,0,0,0
1570468213718.75,-63,4,26,0,0,0,0,0
1570468213750,-58,7,30,0,0,0,0,0
1570468213781.25,-55,7,30,0,0,0,0,0
1570468213812.5,-52,4,27,0,0,0,0,0
1570468213843.75,-52,4,27,0,0,0,0,0
1570468213875,-57,5,25,0,0,0,0,0
1570468213906.25,-59,4,31,0,0,0,0,0
1570468213937.5,-58,6,28,0,0,0,0,0
1570468213968.75,-59,8,27,0,0,0,0,0
1570468214000,-58,8,25,0,0,0,0,0
1570468214031.25,-57,3,28,0,0,0,0,0
1570468214062.5,-57,4,27,0,0,0,0,0
1570468214093.75,-60,4,26,0,0,0,0,0
1570468214125,-56,6,27,0,0,0,0,0
1570468214156.25,-58,5,27,0,0,0,0,0
1570468214187.5,-59,4,29,0,0,0,0,0
1570468214218.75,-57,4,25,0,0,0,0,0
1570468214250,-56,2,26,0,0,0,0,0
1570468214281.25,-58,3,26,0,0,0,0,0
1570468214312.5,-61,5,26,0,0,0,0,0
1570468214343.75,-63,4,26,0,0,0,0,0
1570468214375,-58,3,29,0,0,0,0,0
1570468214406.25,-55,4,28,0,0,0,0,0
1570468214437.5,-49,7,27,0,0,0,0,0
1570468214468.75,-53,6,27,0,0,0,0,0
1570468214500,-57,4,27,0,0,0,0,0
1570468214531.25,-58,4,27,0,0,0,0,0
1570468214562.5,-59,4,28,0,0,0,0,0
1570468214593.75,-59,5,27,0,0,0,0,0
1570468214625,-58,6,26,0,0,0,0,0
1570468214656.25,-56,6,27,0,0,0,0,0
1570468214687.5,-56,6,27,0,0,0,0,0
1570468214718.75,-55,7,25,0,0,0,0,0
1570468214750,-56,7,24,0,0,0,0,0
1570468214781.25,-56,3,29,0,0,0,0,0
1570468214812.5,-59,1,30,0,0,0,0,0
1570468214843.75,-57,5,27,0,0,0,0,0
1570468214875,-58,5,26,0,0,0,0,0
1570468214906.25,-61,5,26,0,0,0,0,0
1570468214937.5,-62,3,25,0,0,0,0,0
1570468214968.75,-58,1,27,0,0,0,0,0
1570468215000,-59,2,26,0,0,0,0,0
1570468215031.25,-57,1,27,0,0,0,0,0
1570468215062.5,-55,2,27,0,0,0,0,0
1570468215093.75,-56,2,26,0,0,0,0,0
1570468215125,-57,4,26,0,0,0,0,0
1570468215156.25,-58,4,26,0,0,0,0,0
1570468215187.5,-60,7,25,0,0,0,0,0
1570468215218.75,-59,7,26,0,0,0,0,0
1570468215250,-56,6,27,0,0,0,0,0
1570468215281.25,-54,5,27,0,0,0,0,0
1570468215312.5,-59,4,26,0,0,0,0,0
1570468215343.75,-60,4,26,0,0,0,0,0
1570468215375,-57,3,27,0,0,0,0,0
1570468215406.25,-56,4,28,0,0,0,0,0
1570468215437.5,-54,5,28,0,0,0,0,0
1570468215468.75,-55,4,27,0,0,0,0,0
1570468215500,-57,4,27,0,0,0,0,0
1570468215531.25,-58,5,28,0,0,0,0,0
1570468215562.5,-59,5,27,0,0,0,0,0
1570468215593.75,-59,5,26,0,0,0,0,0
1570468215625,-58,5,26,0,0,0,0,0
1570468215656.25,-58,5,26,0,0,0,0,0
1570468215687.5,-59,4,27,0,0,0,0,0
1570468215718.75,-54,4,28,0,0,0,0,0
1570468215750,-56,4,27,0,0,0,0,0
1570468215781.25,-57,5,24,0,0,0,0,0
1570468215812.5,-59,6,25,0,0,0,0,0
1570468215843.75,-61,6,26,0,0,0,0,0
1570468215875,-59,5,27,0,0,0,0,0
1570468215906.25,-58,4,25,0,0,0,0,0
1570468215937.5,-58,4,24,0,0,0,0,0
1570468215968.75,-57,3,26,0,0,0,0,0
1570468216000,-57,4,26,0,0,0,0,0
1570468216031.25,-57,5,26,0,0,0,0,0
1570468216062.5,-59,4,25,0,0,0,0,0
1570468216093.75,-59,4,25,0,0,0,0,0
1570468216125,-58,4,26,0,0,0,0,0
1570468216156.25,-58,4,26,0,0,0,0,0
1570468216187.5,-58,4,26,0,0,0,0,0
1570468216218.75,-57,4,25,0,0,0,0,0
1570468216250,-57,4,25,0,0,0,0,0
1570468216281.25,-58,4,25,0,0,0,0,0
1570468216312.5,-59,4,25,0,0,0,0,0
1570468216343.75,-59,5,25,0,0,0,0,0
1570468216375,-59,4,25,0,0,0,0,0
1570468216406.25,-58,4,25,0,0,0,0,0
1570468216437.5,-58,4,25,0,0,0,0,0
1570468216468.75,-57,4,25,0,0,0,0,0
1570468216500,-57,4,25,0,0,0,0,0
1570468216531.25,-58,5,25,0,0,0,0,0
1570468216562.5,-58,5,25,0,0,0,0,0
1570468216593.75,-58,5,25,0,0,0,0,0
1570468216625,-58,5,25,0,0,0,0,0
1570468216656.25,-59,4,25,0,0,0,0,0
1570468216687.5,-59,4,25,0,0,0,0,0
1570468216718.75,-58,5,25,0,0,0,0,0
1570468216750,-58,5,24,0,0,0,0,0
1570468216781.25,-58,4,24,0,0,0,0,0
1570468216812.5,-59,4,24,0,0,0,0,0
1570468216843.75,-59,4,24,0,0,0,0,0
1570468216875,-59,4,24,0,0,0,0,0
1570468216906.25,-59,5,24,0,0,0,0,0
1570468216937.5,-58,5,24,0,0,0,0,0
1570468216968.75,-59,4,24,0,0,0,0,0
1570468217000,-60,4,23,0,0,0,0,0
1570468217031.25,-60,4,23,0,0,0,0,0
1570468217062.5,-58,4,24,0,0,0,0,0
1570468217093.75,-57,5,23,0,0,0,0,0
1570468217125,-58,4,23,0,0,0,0,0
1570468217156.25,-60,4,22,0,0,0,0,0
1570468217187.5,-61,4,22,0,0,0,0,0
1570468217218.75,-60,4,24,0,0,0,0,0
1570468217250,-59,4,24,0,0,0,0,0
1570468217281.25,-58,4,23,0,0,0,0,0
1570468217312.5,-59,4,22,0,0,0,0,0
1570468217343.75,-60,4,22,0,0,0,0,0
1570468217375,-59,4,22,0,0,0,0,0
1570468217406.25,-59,4,23,0,0,0,0,0
1570468217437.5,-59,4,23,0,0,0,0,0
1570468217468.75,-58,4,23,0,0,0,0,0
1570468217500,-58,4,23,0,0,0,0,0
1570468217531.25,-60,4,23,0,0,0,0,0
1570468217562.5,-60,4,22,0,0,0,0,0
1570468217593.75,-59,4,22,0,0,0,0,0
1570468217625,-59,4,22,0,0,0,0,0
1570468217656.25,-59,4,22,0,0,0,0,0
1570468217687.5,-59,4,22,0,0,0,0,0
1570468217718.75,-60,4,22,0,0,0,0,0
1570468217750,-60,5,21,0,0,0,0,0
1570468217781.25,-60,4,22,0,0,0,0,0
1570468217812.5,-58,4,22,0,0,0,0,0
1570468217843.75,-58,4,21,0,0,0,0,0
1570468217875,-59,4,20,0,0,0,0,0
1570468217906.25,-60,5,21,0,0,0,0,0
1570468217937.5,-62,4,21,0,0,0,0,0
1570468217968.75,-59,4,21,0,0,0,0,0
1570468218000,-58,4,21,0,0,0,0,0
1570468218031.25,-59,4,21,0,0,0,0,0
1570468218062.5,-60,4,21,0,0,0,0,0
1570468218093.75,-61,4,21,0,0,0,0,0
1570468218125,-60,4,22,0,0,0,0,0
1570468218156.25,-60,4,21,0,0,0,0,0
1570468218187.5,-59,4,20,0,0,0,0,0
1570468218218.75,-59,3,20,0,0,0,0,0
1570468218250,-59,4,21,0,0,0,0,0
1570468218281.25,-60,4,21,0,0,0,0,0
1570468218312.5,-61,4,20,0,0,0,0,0
1570468218343.75,-61,4,20,0,0,0,0,0
1570468218375,-60,4,20,0,0,0,0,0
1570468218406.25,-60,4,20,0,0,0,0,0
1570468218437.5,-59,4,20,0,0,0,0,0
1570468218468.75,-60,4,20,0,0,0,0,0
1570468218500,-60,4,20,0,0,0,0,0
1570468218531.25,-61,4,19,0,0,0,0,0
1570468218562.5,-59,3,21,0,0,0,0,0
1570468218593.75,-58,5,21,0,0,0,0,0
1570468218625,-61,4,19,0,0,0,0,0
1570468218656.25,-59,4,20,0,0,0,0,0
1570468218687.5,-61,5,19,0,0,0,0,0
1570468218718.75,-60,4,20,0,0,0,0,0
1570468218750,-60,4,20,0,0,0,0,0
1570468218781.25,-60,4,20,0,0,0,0,0
1570468218812.5,-60,4,20,0,0,0,0,0
1570468218843.75,-60,4,20,0,0,0,0,0
1570468218875,-61,4,20,0,0,0,0,0
1570468218906.25,-60,4,20,0,0,0,0,0
1570468218937.5,-59,4,20,0,0,0,0,0
1570468218968.75,-60,4,20,0,0,0,0,0
1570468219000,-60,4,20,0,0,0,0,0
1570468219031.25,-60,4,20,0,0,0,0,0
1570468219062.5,-60,4,19,0,0,0,0,0
1570468219093.75,-60,5,19,0,0,0,0,0
1570468219125,-61,4,19,0,0,0,0,0
1570468219156.25,-61,5,19,0,0,0,0,0
1570468219187.5,-60,5,19,0,0,0,0,0
1570468219218.75,-60,4,19,0,0,0,0,0
1570468219250,-60,4,20,0,0,0,0,0
1570468219281.25,-60,4,19,0,0,0,0,0
1570468219312.5,-60,4,20,0,0,0,0,0
1570468219343.75,-60,4,20,0,0,0,0,0
1570468219375,-60,4,20,0,0,0,0,0
1570468219406.25,-60,4,20,0,0,0,0,0
1570468219437.5,-60,5,19,0,0,0,0,0
1570468219468.75,-60,5,19,0,0,0,0,0
1570468219500,-60,5,19,0,0,0,0,0
1570468219531.25,-60,5,19,0,0,0,0,0
1570468219562.5,-59,5,19,0,0,0,0,0
1570468219593.75,-60,5,19,0,0,0,0,0
1570468219625,-60,4,19,0,0,0,0,0
1570468219656.25,-61,5,19,0,0,0,0,0
1570468219687.5,-60,5,19,0,0,0,0,0
1570468219718.75,-60,5,19,0,0,0,0,0
1570468219750,-60,5,19,0,0,0,0,0
1570468219781.25,-61,4,18,0,0,0,0,0
1570468219812.5,-61,4,19,0,0,0,0,0
1570468219843.75,-60,4,19,0,0,0,0,0
1570468219875,-60,3,19,0,0,0,0,0
1570468219906.25,-60,4,18,0,0,0,0,0
1570468219937.5,-61,4,18,0,0,0,0,0
1570468219968.75,-62,5,17,0,0,0,0,0
1570468220000,-62,4,19,0,0,0,0,0
1570468220031.25,-60,4,19,0,0,0,0,0
1570468220062.5,-59,5,19,0,0,0,0,0
1570468220093.75,-59,4,19,0,0,0,0,0
1570468220125,-60,4,19,0,0,0,0,0
1570468220156.25,-60,4,19,0,0,0,0,0
1570468220187.5,-61,4,17,0,0,0,0,0
1570468220218.75,-61,4,17,0,0,0,0,0
1570468220250,-61,4,19,0,0,0,0,0
1570468220281.25,-60,5,19,0,0,0,0,0
1570468220312.5,-61,5,19,0,0,0,0,0
1570468220343.75,-61,5,19,0,0,0,0,0
1570468220375,-60,4,18,0,0,0,0,0
1570468220406.25,-59,3,17,0,0,0,0,0
1570468220437.5,-60,3,18,0,0,0,0,0
1570468220468.75,-61,4,18,0,0,0,0,0
1570468220500,-62,4,18,0,0,0,0,0
1570468220531.25,-62,4,18,0,0,0,0,0
1570468220562.5,-61,4,19,0,0,0,0,0
1570468220593.75,-60,4,18,0,0,0,0,0
1570468220625,-60,4,18,0,0,0,0,0
1570468220656.25,-61,4,18,0,0,0,0,0
1570468220687.5,-61,4,18,0,0,0,0,0
1570468220718.75,-62,4,18,0,0,0,0,0
1570468220750,-60,4,19,0,0,0,0,0
1570468220781.25,-58,3,19,0,0,0,0,0
1570468220812.5,-59,3,17,0,0,0,0,0
1570468220843.75,-60,3,18,0,0,0,0,0
1570468220875,-60,4,19,0,0,0,0,0
1570468220906.25,-60,4,20,0,0,0,0,0
1570468220937.5,-62,5,18,0,0,0,0,0
1570468220968.75,-61,4,18,0,0,0,0,0
1570468221000,-61,4,19,0,0,0,0,0
1570468221031.25,-60,4,19,0,0,0,0,0
1570468221062.5,-59,4,19,0,0,0,0,0
1570468221093.75,-60,4,19,0,0,0,0,0
1570468221125,-60,4,18,0,0,0,0,0
1570468221156.25,-61,5,18,0,0,0,0,0
1570468221187.5,-61,5,18,0,0,0,0,0
1570468221218.75,-61,5,18,0,0,0,0,0
1570468221250,-60,5,18,0,0,0,0,0
1570468221281.25,-61,5,18,0,0,0,0,0
1570468221312.5,-60,5,18,0,0,0,0,0
1570468221343.75,-60,5,18,0,0,0,0,0
1570468221375,-60,5,18,0,0,0,0,0
1570468221406.25,-61,4,18,0,0,0,0,0
1570468221437.5,-61,4,18,0,0,0,0,0
1570468221468.75,-61,5,18,0,0,0,0,0
1570468221500,-60,4,18,0,0,0,0,0
1570468221531.25,-61,4,18,0,0,0,0,0
1570468221562.5,-60,4,18,0,0,0,0,0
1570468221593.75,-61,4,17,0,0,0,0,0
1570468221625,-61,5,17,0,0,0,0,0
1570468221656.25,-61,4,17,0,0,0,0,0
1570468221687.5,-61,4,17,0,0,0,0,0
1570468221718.75,-61,4,17,0,0,0,0,0
1570468221750,-61,5,17,0,0,0,0,0
1570468221781.25,-61,5,17,0,0,0,0,0
1570468221812.5,-61,4,17,0,0,0,0,0
1570468221843.75,-61,4,17,0,0,0,0,0
1570468221875,-61,4,17,0,0,0,0,0
1570468221906.25,-61,4,17,0,0,0,0,0
1570468221937.5,-61,4,17,0,0,0,0,0
1570468221968.75,-61,4,17,0,0,0,0,0
1570468222000,-63,4,16,0,0,0,0,0
1570468222031.25,-61,4,16,0,0,0,0,0
1570468222062.5,-60,5,17,0,0,0,0,0
1570468222093.75,-59,3,19,0,0,0,0,0
1570468222125,-60,3,19,0,0,0,0,0
1570468222156.25,-60,4,18,0,0,0,0,0
1570468222187.5,-61,4,17,0,0,0,0,0
1570468222218.75,-63,5,17,0,0,0,0,0
1570468222250,-62,4,19,0,0,0,0,0
1570468222281.25,-60,4,19,0,0,0,0,0
1570468222312.5,-58,5,18,0,0,0,0,0
1570468222343.75,-59,4,18,0,0,0,0,0
1570468222375,-60,5,18,0,0,0,0,0
1570468222406.25,-60,5,20,0,0,0,0,0
1570468222437.5,-61,4,17,0,0,0,0,0
1570468222468.75,-61,4,17,0,0,0,0,0
1570468222500,-61,4,17,0,0,0,0,0
1570468222531.25,-61,5,18,0,0,0,0,0
1570468222562.5,-61,4,18,0,0,0,0,0
1570468222593.75,-60,4,18,0,0,0,0,0
1570468222625,-59,5,18,0,0,0,0,0
1570468222656.25,-60,4,18,0,0,0,0,0
1570468222687.5,-61,5,18,0,0,0,0,0
1570468222718.75,-61,4,18,0,0,0,0,0
1570468222750,-62,4,18,0,0,0,0,0
1570468222781.25,-61,4,17,0,0,0,0,0
1570468222812.5,-61,4,17,0,0,0,0,0
1570468222843.75,-60,4,17,0,0,0,0,0
1570468222875,-60,4,17,0,0,0,0,0
1570468222906.25,-60,5,17,0,0,0,0,0
1570468222937.5,-60,5,17,0,0,0,0,0
1570468222968.75,-61,5,17,0,0,0,0,0
1570468223000,-62,5,17,0,0,0,0,0
1570468223031.25,-62,4,17,0,0,0,0,0
1570468223062.5,-62,4,17,0,0,0,0,0
1570468223093.75,-61,4,17,0,0,0,0,0
1570468223125,-61,4,17,0,0,0,0,0
1570468223156.25,-60,4,17,0,0,0,0,0
1570468223187.5,-60,5,17,0,0,0,0,0
1570468223218.75,-61,4,17,0,0,0,0,0
1570468223250,-62,4,16,0,0,0,0,0
1570468223281.25,-61,4,16,0,0,0,0,0
1570468223312.5,-61,5,16,0,0,0,0,0
1570468223343.75,-61,4,16,0,0,0,0,0
1570468223375,-61,4,16,0,0,0,0,0
1570468223406.25,-61,4,16,0,0,0,0,0
1570468223437.5,-61,4,16,0,0,0,0,0
1570468223468.75,-61,4,16,0,0,0,0,0
1570468223500,-61,4,16,0,0,0,0,0
1570468223531.25,-61,4,16,0,0,0,0,0
1570468223562.5,-61,4,16,0,0,0,0,0
1570468223593.75,-62,4,16,0,0,0,0,0
1570468223625,-62,4,16,0,0,0,0,0
1570468223656.25,-61,4,15,0,0,0,0,0
1570468223687.5,-61,4,15,0,0,0,0,0
1570468223718.75,-61,5,16,0,0,0,0,0
1570468223750,-62,5,16,0,0,0,0,0
1570468223781.25,-61,5,16,0,0,0,0,0
1570468223812.5,-61,5,16,0,0,0,0,0
1570468223843.75,-62,4,16,0,0,0,0,0
1570468223875,-62,4,16,0,0,0,0,0
1570468223906.25,-61,4,16,0,0,0,0,0
1570468223937.5,-61,4,16,0,0,0,0,0
1570468223968.75,-61,4,16,0,0,0,0,0
1570468224000,-62,5,15,0,0,0,0,0
1570468224031.25,-62,4,15,0,0,0,0,0
1570468224062.5,-62,4,16,0,0,0,0,0
1570468224093.75,-61,4,16,0,0,0,0,0
1570468224125,-62,4,15,0,0,0,0,0
1570468224156.25,-62,4,16,0,0,0,0,0
1570468224187.5,-61,4,16,0,0,0,0,0
1570468224218.75,-60,5,15,0,0,0,0,0
1570468224250,-61,5,14,0,0,0,0,0
1570468224281.25,-61,4,15,0,0,0,0,0
1570468224312.5,-61,4,17,0,0,0,0,0
1570468224343.75,-61,4,17,0,0,0,0,0
1570468224375,-61,4,16,0,0,0,0,0
1570468224406.25,-61,4,16,0,0,0,0,0
1570468224437.5,-62,4,15,0,0,0,0,0
1570468224468.75,-62,4,15,0,0,0,0,0
1570468224500,-62,4,15,0,0,0,0,0
1570468224531.25,-61,4,15,0,0,0,0,0
1570468224562.5,-61,4,16,0,0,0,0,0
1570468224593.75,-61,4,15,0,0,0,0,0
1570468224625,-61,4,15,0,0,0,0,0
1570468224656.25,-62,5,15,0,0,0,0,0
1570468224687.5,-62,4,15,0,0,0,0,0
1570468224718.75,-62,4,15,0,0,0,0,0
1570468224750,-62,4,15,0,0,0,0,0
1570468224781.25,-61,4,14,0,0,0,0,0
1570468224812.5,-61,4,14,0,0,0,0,0
1570468224843.75,-62,5,15,0,0,0,0,0
1570468224875,-62,5,15,0,0,0,0,0
1570468224906.25,-62,5,15,0,0,0,0,0
1570468224937.5,-61,5,15,0,0,0,0,0
1570468224968.75,-61,5,15,0,0,0,0,0
1570468225000,-62,4,14,0,0,0,0,0
1570468225031.25,-62,4,15,0,0,0,0,0
1570468225062.5,-62,4,14,0,0,0,0,0
1570468225093.75,-61,5,15,0,0,0,0,0
1570468225125,-61,5,14,0,0,0,0,0
1570468225156.25,-62,5,14,0,0,0,0,0
1570468225187.5,-62,5,14,0,0,0,0,0
1570468225218.75,-62,5,14,0,0,0,0,0
1570468225250,-61,5,15,0,0,0,0,0
1570468225281.25,-61,4,14,0,0,0,0,0
1570468225312.5,-61,5,14,0,0,0,0,0
1570468225343.75,-62,5,15,0,0,0,0,0
1570468225375,-62,5,15,0,0,0,0,0
1570468225406.25,-62,5,16,0,0,0,0,0
1570468225437.5,-62,5,15,0,0,0,0,0
1570468225468.75,-62,5,14,0,0,0,0,0
1570468225500,-62,4,14,0,0,0,0,0
1570468225531.25,-62,4,14,0,0,0,0,0
1570468225562.5,-61,3,14,0,0,0,0,0
1570468225593.75,-60,3,15,0,0,0,0,0
1570468225625,-61,3,14,0,0,0,0,0
1570468225656.25,-60,4,15,0,0,0,0,0
1570468225687.5,-63,5,14,0,0,0,0,0
1570468225718.75,-63,5,14,0,0,0,0,0
1570468225750,-63,5,14,0,0,0,0,0
1570468225781.25,-63,5,14,0,0,0,0,0
1570468225812.5,-61,3,14,0,0,0,0,0
1570468225843.75,-61,3,15,0,0,0,0,0
1570468225875,-60,3,15,0,0,0,0,0
1570468225906.25,-60,3,15,0,0,0,0,0
1570468225937.5,-61,4,15,0,0,0,0,0
1570468225968.75,-62,5,16,0,0,0,0,0
1570468226000,-62,5,16,0,0,0,0,0
1570468226031.25,-62,5,15,0,0,0,0,0
1570468226062.5,-61,5,14,0,0,0,0,0
1570468226093.75,-60,5,14,0,0,0,0,0
1570468226125,-60,5,14,0,0,0,0,0
1570468226156.25,-61,5,16,0,0,0,0,0
1570468226187.5,-61,5,16,0,0,0,0,0
1570468226218.75,-62,4,17,0,0,0,0,0
1570468226250,-62,4,17,0,0,0,0,0
1570468226281.25,-62,4,17,0,0,0,0,0
1570468226312.5,-60,4,17,0,0,0,0,0
1570468226343.75,-60,5,17,0,0,0,0,0
1570468226375,-60,5,17,0,0,0,0,0
1570468226406.25,-61,5,19,0,0,0,0,0
1570468226437.5,-61,5,20,0,0,0,0,0
1570468226468.75,-60,5,20,0,0,0,0,0
1570468226500,-60,7,17,0,0,0,0,0
1570468226531.25,-58,8,18,0,0,0,0,0
1570468226562.5,-59,7,19,0,0,0,0,0
1570468226593.75,-58,8,20,0,0,0,0,0
1570468226625,-60,8,19,0,0,0,0,0
1570468226656.25,-60,9,19,0,0,0,0,0
1570468226687.5,-60,9,19,0,0,0,0,0
1570468226718.75,-60,9,19,0,0,0,0,0
1570468226750,-61,9,18,0,0,0,0,0
1570468226781.25,-59,10,18,0,0,0,0,0
1570468226812.5,-70,8,12,0,0,0,0,0
1570468226843.75,-72,3,18,0,0,0,0,0
1570468226875,-73,1,19,0,0,0,0,0
1570468226906.25,-61,5,31,0,0,0,0,0
1570468226937.5,-56,9,32,0,0,0,0,0
1570468226968.75,-56,14,23,0,0,0,0,0
1570468227000,-54,14,20,0,0,0,0,0
1570468227031.25,-54,16,20,0,0,0,0,0
1570468227062.5,-58,19,22,0,0,0,0,0
1570468227093.75,-60,23,18,0,0,0,0,0
1570468227125,-60,21,24,0,0,0,0,0
1570468227156.25,-57,23,30,0,0,0,0,0
1570468227187.5,-58,26,28,0,0,0,0,0
1570468227218.75,-61,21,32,0,0,0,0,0
1570468227250,-61,17,32,0,0,0,0,0
1570468227281.25,-58,29,8,0,0,0,0,0
1570468227312.5,-47,36,0,0,0,0,0,0
1570468227343.75,-44,42,-5,0,0,0,0,0
1570468227375,-43,29,14,0,0,0,0,0
1570468227406.25,-48,32,15,0,0,0,0,0
1570468227437.5,-40,32,14,0,0,0,0,0
1570468227468.75,-43,32,12,0,0,0,0,0
1570468227500,-44,38,14,0,0,0,0,0
1570468227531.25,-46,40,11,0,0,0,0,0
1570468227562.5,-48,38,9,0,0,0,0,0
1570468227593.75,-51,36,10,0,0,0,0,0
1570468227625,-53,34,13,0,0,0,0,0
1570468227656.25,-56,34,13,0,0,0,0,0
1570468227687.5,-57,34,11,0,0,0,0,0
1570468227718.75,-55,35,10,0,0,0,0,0
1570468227750,-56,36,8,0,0,0,0,0
1570468227781.25,-57,36,5,0,0,0,0,0
1570468227812.5,-58,36,6,0,0,0,0,0
1570468227843.75,-55,35,7,0,0,0,0,0
1570468227875,-53,34,10,0,0,0,0,0
1570468227906.25,-51,34,10,0,0,0,0,0
1570468227937.5,-51,34,8,0,0,0,0,0
1570468227968.75,-53,36,5,0,0,0,0,0
1570468228000,-55,39,6,0,0,0,0,0
1570468228031.25,-53,38,8,0,0,0,0,0
1570468228062.5,-52,38,8,0,0,0,0,0
1570468228093.75,-51,35,9,0,0,0,0,0
1570468228125,-49,33,11,0,0,0,0,0
1570468228156.25,-49,33,11,0,0,0,0,0
1570468228187.5,-51,33,11,0,0,0,0,0
1570468228218.75,-55,33,10,0,0,0,0,0
1570468228250,-54,33,11,0,0,0,0,0
1570468228281.25,-55,33,12,0,0,0,0,0
1570468228312.5,-55,34,13,0,0,0,0,0
1570468228343.75,-54,34,13,0,0,0,0,0
1570468228375,-53,33,12,0,0,0,0,0
1570468228406.25,-53,33,13,0,0,0,0,0
1570468228437.5,-49,32,12,0,0,0,0,0
1570468228468.75,-48,33,12,0,0,0,0,0
1570468228500,-51,32,12,0,0,0,0,0
1570468228531.25,-54,33,12,0,0,0,0,0
1570468228562.5,-55,33,12,0,0,0,0,0
1570468228593.75,-57,34,12,0,0,0,0,0
1570468228625,-57,34,11,0,0,0,0,0
1570468228656.25,-58,33,10,0,0,0,0,0
1570468228687.5,-57,33,10,0,0,0,0,0
1570468228718.75,-53,32,10,0,0,0,0,0
1570468228750,-50,31,10,0,0,0,0,0
1570468228781.25,-47,30,10,0,0,0,0,0
1570468228812.5,-52,31,11,0,0,0,0,0
1570468228843.75,-62,32,6,0,0,0,0,0
1570468228875,-61,33,9,0,0,0,0,0
1570468228906.25,-60,32,8,0,0,0,0,0
1570468228937.5,-55,29,9,0,0,0,0,0
1570468228968.75,-56,29,8,0,0,0,0,0
1570468229000,-55,29,9,0,0,0,0,0
1570468229031.25,-55,30,9,0,0,0,0,0
1570468229062.5,-53,29,11,0,0,0,0,0
1570468229093.75,-54,29,11,0,0,0,0,0
1570468229125,-59,29,9,0,0,0,0,0
1570468229156.25,-60,29,9,0,0,0,0,0
1570468229187.5,-54,30,11,0,0,0,0,0
1570468229218.75,-53,30,10,0,0,0,0,0
1570468229250,-56,30,8,0,0,0,0,0
1570468229281.25,-57,30,8,0,0,0,0,0
1570468229312.5,-56,30,9,0,0,0,0,0
1570468229343.75,-57,30,10,0,0,0,0,0
1570468229375,-57,29,10,0,0,0,0,0
1570468229406.25,-56,29,12,0,0,0,0,0
1570468229437.5,-55,29,11,0,0,0,0,0
1570468229468.75,-54,30,9,0,0,0,0,0
1570468229500,-55,30,9,0,0,0,0,0
1570468229531.25,-56,29,10,0,0,0,0,0
1570468229562.5,-55,29,11,0,0,0,0,0
1570468229593.75,-55,29,12,0,0,0,0,0
1570468229625,-55,29,11,0,0,0,0,0
1570468229656.25,-55,29,10,0,0,0,0,0
1570468229687.5,-56,30,10,0,0,0,0,0
1570468229718.75,-54,31,12,0,0,0,0,0
1570468229750,-56,31,11,0,0,0,0,0
1570468229781.25,-58,31,10,0,0,0,0,0
1570468229812.5,-56,30,9,0,0,0,0,0
1570468229843.75,-56,30,9,0,0,0,0,0
1570468229875,-56,30,9,0,0,0,0,0
1570468229906.25,-56,30,10,0,0,0,0,0
1570468229937.5,-54,29,11,0,0,0,0,0
1570468229968.75,-53,29,11,0,0,0,0,0
1570468230000,-55,29,11,0,0,0,0,0
1570468230031.25,-56,29,11,0,0,0,0,0
1570468230062.5,-57,29,11,0,0,0,0,0
1570468230093.75,-57,29,11,0,0,0,0,0
1570468230125,-57,30,11,0,0,0,0,0
1570468230156.25,-56,29,11,0,0,0,0,0
1570468230187.5,-56,29,11,0,0,0,0,0
1570468230218.75,-55,28,12,0,0,0,0,0
1570468230250,-56,28,11,0,0,0,0,0
1570468230281.25,-55,28,12,0,0,0,0,0
1570468230312.5,-56,29,11,0,0,0,0,0
1570468230343.75,-55,29,11,0,0,0,0,0
1570468230375,-56,29,10,0,0,0,0,0
1570468230406.25,-57,29,11,0,0,0,0,0
1570468230437.5,-56,29,11,0,0,0,0,0
1570468230468.75,-56,29,11,0,0,0,0,0
1570468230500,-56,29,11,0,0,0,0,0
1570468230531.25,-56,29,11,0,0,0,0,0
1570468230562.5,-54,29,13,0,0,0,0,0
1570468230593.75,-55,28,13,0,0,0,0,0
1570468230625,-55,29,12,0,0,0,0,0
1570468230656.25,-55,29,11,0,0,0,0,0
1570468230687.5,-55,29,11,0,0,0,0,0
1570468230718.75,-56,28,11,0,0,0,0,0
1570468230750,-56,28,12,0,0,0,0,0
1570468230781.25,-57,28,11,0,0,0,0,0
1570468230812.5,-58,29,11,0,0,0,0,0
1570468230843.75,-57,29,11,0,0,0,0,0
1570468230875,-56,30,11,0,0,0,0,0
1570468230906.25,-55,29,12,0,0,0,0,0
1570468230937.5,-55,29,12,0,0,0,0,0
1570468230968.75,-56,29,11,0,0,0,0,0
1570468231000,-54,28,11,0,0,0,0,0
1570468231031.25,-52,28,13,0,0,0,0,0
1570468231062.5,-50,30,14,0,0,0,0,0
1570468231093.75,-55,29,13,0,0,0,0,0
1570468231125,-57,30,12,0,0,0,0,0
1570468231156.25,-59,29,10,0,0,0,0,0
1570468231187.5,-59,28,11,0,0,0,0,0
1570468231218.75,-58,28,8,0,0,0,0,0
1570468231250,-59,27,8,0,0,0,0,0
1570468231281.25,-56,27,10,0,0,0,0,0
1570468231312.5,-54,27,11,0,0,0,0,0
1570468231343.75,-58,28,10,0,0,0,0,0
1570468231375,-60,29,10,0,0,0,0,0
1570468231406.25,-60,29,9,0,0,0,0,0
1570468231437.5,-57,28,11,0,0,0,0,0
1570468231468.75,-54,28,12,0,0,0,0,0
1570468231500,-53,29,13,0,0,0,0,0
1570468231531.25,-55,29,12,0,0,0,0,0
1570468231562.5,-56,28,12,0,0,0,0,0
1570468231593.75,-56,29,13,0,0,0,0,0
1570468231625,-55,29,12,0,0,0,0,0
1570468231656.25,-55,29,11,0,0,0,0,0
1570468231687.5,-55,29,13,0,0,0,0,0
1570468231718.75,-55,30,13,0,0,0,0,0
1570468231750,-54,30,12,0,0,0,0,0
1570468231781.25,-56,29,13,0,0,0,0,0
1570468231812.5,-56,29,13,0,0,0,0,0
1570468231843.75,-55,28,12,0,0,0,0,0
1570468231875,-56,28,11,0,0,0,0,0
1570468231906.25,-56,28,13,0,0,0,0,0
1570468231937.5,-55,28,13,0,0,0,0,0
1570468231968.75,-55,28,13,0,0,0,0,0
1570468232000,-55,28,13,0,0,0,0,0
1570468232031.25,-60,28,14,0,0,0,0,0
1570468232062.5,-56,28,14,0,0,0,0,0
1570468232093.75,-52,29,15,0,0,0,0,0
1570468232125,-56,28,15,0,0,0,0,0
1570468232156.25,-53,33,14,0,0,0,0,0
1570468232187.5,-49,28,12,0,0,0,0,0
1570468232218.75,-51,28,13,0,0,0,0,0
1570468232250,-64,31,9,0,0,0,0,0
1570468232281.25,-63,30,9,0,0,0,0,0
1570468232312.5,-48,27,17,0,0,0,0,0
1570468232343.75,-51,26,14,0,0,0,0,0
1570468232375,-58,27,10,0,0,0,0,0
1570468232406.25,-60,28,8,0,0,0,0,0
1570468232437.5,-63,28,8,0,0,0,0,0
1570468232468.75,-66,27,6,0,0,0,0,0
1570468232500,-54,25,14,0,0,0,0,0
1570468232531.25,-58,25,12,0,0,0,0,0
1570468232562.5,-55,28,13,0,0,0,0,0
1570468232593.75,-55,28,13,0,0,0,0,0
1570468232625,-55,27,13,0,0,0,0,0
1570468232656.25,-56,26,14,0,0,0,0,0
1570468232687.5,-55,26,15,0,0,0,0,0
1570468232718.75,-56,25,15,0,0,0,0,0
1570468232750,-56,25,15,0,0,0,0,0
1570468232781.25,-59,25,13,0,0,0,0,0
1570468232812.5,-58,26,13,0,0,0,0,0
1570468232843.75,-56,26,14,0,0,0,0,0
1570468232875,-57,26,14,0,0,0,0,0
1570468232906.25,-58,26,13,0,0,0,0,0
1570468232937.5,-58,27,14,0,0,0,0,0
1570468232968.75,-58,26,13,0,0,0,0,0
1570468233000,-56,25,15,0,0,0,0,0
1570468233031.25,-56,25,15,0,0,0,0,0
1570468233062.5,-53,25,17,0,0,0,0,0
1570468233093.75,-49,26,19,0,0,0,0,0
1570468233125,-57,27,17,0,0,0,0,0
1570468233156.25,-60,27,14,0,0,0,0,0
1570468233187.5,-60,27,16,0,0,0,0,0
1570468233218.75,-59,27,17,0,0,0,0,0
1570468233250,-54,26,18,0,0,0,0,0
1570468233281.25,-54,26,18,0,0,0,0,0
1570468233312.5,-54,25,17,0,0,0,0,0
1570468233343.75,-54,25,18,0,0,0,0,0
1570468233375,-55,26,18,0,0,0,0,0
1570468233406.25,-57,26,17,0,0,0,0,0
1570468233437.5,-55,26,18,0,0,0,0,0
1570468233468.75,-57,25,17,0,0,0,0,0
1570468233500,-56,24,18,0,0,0,0,0
1570468233531.25,-56,25,19,0,0,0,0,0
1570468233562.5,-56,26,18,0,0,0,0,0
1570468233593.75,-56,24,17,0,0,0,0,0
1570468233625,-56,24,18,0,0,0,0,0
1570468233656.25,-53,25,18,0,0,0,0,0
1570468233687.5,-54,25,18,0,0,0,0,0
1570468233718.75,-59,26,17,0,0,0,0,0
1570468233750,-59,26,17,0,0,0,0,0
1570468233781.25,-53,26,19,0,0,0,0,0
1570468233812.5,-53,23,17,0,0,0,0,0
1570468233843.75,-56,24,16,0,0,0,0,0
1570468233875,-60,25,16,0,0,0,0,0
1570468233906.25,-60,25,16,0,0,0,0,0
1570468233937.5,-58,25,16,0,0,0,0,0
1570468233968.75,-56,26,17,0,0,0,0,0
1570468234000,-54,25,18,0,0,0,0,0
1570468234031.25,-53,25,18,0,0,0,0,0
1570468234062.5,-55,25,17,0,0,0,0,0
1570468234093.75,-55,26,17,0,0,0,0,0
1570468234125,-55,25,17,0,0,0,0,0
1570468234156.25,-57,25,17,0,0,0,0,0
1570468234187.5,-57,26,17,0,0,0,0,0
1570468234218.75,-55,25,17,0,0,0,0,0
1570468234250,-57,25,16,0,0,0,0,0
1570468234281.25,-57,25,17,0,0,0,0,0
1570468234312.5,-55,26,18,0,0,0,0,0
1570468234343.75,-55,26,18,0,0,0,0,0
1570468234375,-56,26,17,0,0,0,0,0
1570468234406.25,-56,25,17,0,0,0,0,0
1570468234437.5,-57,25,16,0,0,0,0,0
1570468234468.75,-57,25,17,0,0,0,0,0
1570468234500,-56,24,17,0,0,0,0,0
1570468234531.25,-56,25,17,0,0,0,0,0
1570468234562.5,-58,25,17,0,0,0,0,0
1570468234593.75,-56,25,17,0,0,0,0,0
1570468234625,-56,25,17,0,0,0,0,0
1570468234656.25,-56,25,18,0,0,0,0,0
1570468234687.5,-57,24,17,0,0,0,0,0
1570468234718.75,-57,25,17,0,0,0,0,0
1570468234750,-57,26,16,0,0,0,0,0
1570468234781.25,-51,28,18,0,0,0,0,0
1570468234812.5,-55,23,17,0,0,0,0,0
1570468234843.75,-58,24,16,0,0,0,0,0
1570468234875,-57,24,17,0,0,0,0,0
1570468234906.25,-57,24,17,0,0,0,0,0
1570468234937.5,-58,24,17,0,0,0,0,0
1570468234968.75,-57,25,17,0,0,0,0,0
1570468235000,-55,24,18,0,0,0,0,0
1570468235031.25,-57,24,16,0,0,0,0,0
1570468235062.5,-60,26,15,0,0,0,0,0
1570468235093.75,-52,28,18,0,0,0,0,0
1570468235125,-54,27,16,0,0,0,0,0
1570468235156.25,-56,25,16,0,0,0,0,0
1570468235187.5,-57,25,15,0,0,0,0,0
1570468235218.75,-56,26,18,0,0,0,0,0
1570468235250,-54,25,19,0,0,0,0,0
1570468235281.25,-61,24,13,0,0,0,0,0
1570468235312.5,-59,23,14,0,0,0,0,0
1570468235343.75,-60,25,14,0,0,0,0,0
1570468235375,-60,25,15,0,0,0,0,0
1570468235406.25,-55,26,15,0,0,0,0,0
1570468235437.5,-53,27,15,0,0,0,0,0
1570468235468.75,-53,25,15,0,0,0,0,0
1570468235500,-54,22,18,0,0,0,0,0
1570468235531.25,-55,22,17,0,0,0,0,0
1570468235562.5,-58,24,17,0,0,0,0,0
1570468235593.75,-60,25,15,0,0,0,0,0
1570468235625,-61,26,14,0,0,0,0,0
1570468235656.25,-60,25,14,0,0,0,0,0
1570468235687.5,-54,25,17,0,0,0,0,0
1570468235718.75,-52,25,17,0,0,0,0,0
1570468235750,-51,24,18,0,0,0,0,0
1570468235781.25,-53,24,19,0,0,0,0,0
1570468235812.5,-58,24,17,0,0,0,0,0
1570468235843.75,-58,24,15,0,0,0,0,0
1570468235875,-59,25,15,0,0,0,0,0
1570468235906.25,-61,24,17,0,0,0,0,0
1570468235937.5,-56,24,18,0,0,0,0,0
1570468235968.75,-54,25,18,0,0,0,0,0
1570468236000,-54,26,18,0,0,0,0,0
1570468236031.25,-53,25,19,0,0,0,0,0
1570468236062.5,-53,26,19,0,0,0,0,0
1570468236093.75,-58,25,19,0,0,0,0,0
1570468236125,-57,24,20,0,0,0,0,0
1570468236156.25,-53,24,20,0,0,0,0,0
1570468236187.5,-54,25,21,0,0,0,0,0
1570468236218.75,-56,25,19,0,0,0,0,0
1570468236250,-54,25,20,0,0,0,0,0
1570468236281.25,-55,25,20,0,0,0,0,0
1570468236312.5,-55,26,21,0,0,0,0,0
1570468236343.75,-56,25,20,0,0,0,0,0
1570468236375,-58,24,18,0,0,0,0,0
1570468236406.25,-56,25,19,0,0,0,0,0
1570468236437.5,-56,25,20,0,0,0,0,0
1570468236468.75,-55,26,20,0,0,0,0,0
1570468236500,-55,25,20,0,0,0,0,0
1570468236531.25,-57,25,20,0,0,0,0,0
1570468236562.5,-54,26,20,0,0,0,0,0
1570468236593.75,-53,25,22,0,0,0,0,0
1570468236625,-55,25,21,0,0,0,0,0
1570468236656.25,-55,27,20,0,0,0,0,0
1570468236687.5,-55,26,20,0,0,0,0,0
1570468236718.75,-55,27,20,0,0,0,0,0
1570468236750,-51,27,21,0,0,0,0,0
1570468236781.25,-52,26,21,0,0,0,0,0
1570468236812.5,-53,26,21,0,0,0,0,0
1570468236843.75,-55,26,21,0,0,0,0,0
1570468236875,-53,26,22,0,0,0,0,0
1570468236906.25,-52,26,21,0,0,0,0,0
1570468236937.5,-53,26,21,0,0,0,0,0
1570468236968.75,-56,26,21,0,0,0,0,0
1570468237000,-56,26,22,0,0,0,0,0
1570468237031.25,-58,25,21,0,0,0,0,0
1570468237062.5,-58,24,19,0,0,0,0,0
1570468237093.75,-57,25,19,0,0,0,0,0
1570468237125,-55,25,20,0,0,0,0,0
1570468237156.25,-55,25,22,0,0,0,0,0
1570468237187.5,-47,24,23,0,0,0,0,0
1570468237218.75,-49,24,22,0,0,0,0,0
1570468237250,-57,26,20,0,0,0,0,0
1570468237281.25,-57,26,21,0,0,0,0,0
1570468237312.5,-56,26,20,0,0,0,0,0
1570468237343.75,-55,26,20,0,0,0,0,0
1570468237375,-55,26,21,0,0,0,0,0
1570468237406.25,-55,27,22,0,0,0,0,0
1570468237437.5,-49,25,20,0,0,0,0,0
1570468237468.75,-53,26,19,0,0,0,0,0
1570468237500,-56,26,19,0,0,0,0,0
1570468237531.25,-58,24,21,0,0,0,0,0
1570468237562.5,-58,25,22,0,0,0,0,0
1570468237593.75,-56,26,22,0,0,0,0,0
1570468237625,-56,26,21,0,0,0,0,0
1570468237656.25,-50,27,21,0,0,0,0,0
1570468237687.5,-49,25,20,0,0,0,0,0
1570468237718.75,-55,24,19,0,0,0,0,0
1570468237750,-57,25,20,0,0,0,0,0
1570468237781.25,-56,25,22,0,0,0,0,0
1570468237812.5,-56,25,21,0,0,0,0,0
1570468237843.75,-57,27,19,0,0,0,0,0
1570468237875,-52,26,20,0,0,0,0,0
1570468237906.25,-50,23,20,0,0,0,0,0
1570468237937.5,-56,25,19,0,0,0,0,0
1570468237968.75,-56,26,20,0,0,0,0,0
1570468238000,-54,24,21,0,0,0,0,0
1570468238031.25,-55,25,20,0,0,0,0,0
1570468238062.5,-57,27,19,0,0,0,0,0
1570468238093.75,-59,26,19,0,0,0,0,0
1570468238125,-56,25,20,0,0,0,0,0
1570468238156.25,-57,25,20,0,0,0,0,0
1570468238187.5,-54,25,21,0,0,0,0,0
1570468238218.75,-52,24,22,0,0,0,0,0
1570468238250,-50,26,23,0,0,0,0,0
1570468238281.25,-52,27,22,0,0,0,0,0
1570468238312.5,-54,28,23,0,0,0,0,0
1570468238343.75,-54,27,22,0,0,0,0,0
1570468238375,-55,27,22,0,0,0,0,0
1570468238406.25,-55,26,22,0,0,0,0,0
1570468238437.5,-54,25,22,0,0,0,0,0
1570468238468.75,-51,23,22,0,0,0,0,0
1570468238500,-50,25,21,0,0,0,0,0
1570468238531.25,-53,26,20,0,0,0,0,0
1570468238562.5,-59,26,19,0,0,0,0,0
1570468238593.75,-58,28,22,0,0,0,0,0
1570468238625,-60,30,21,0,0,0,0,0
1570468238656.25,-53,26,19,0,0,0,0,0
1570468238687.5,-47,23,22,0,0,0,0,0
1570468238718.75,-49,23,22,0,0,0,0,0
1570468238750,-59,25,19,0,0,0,0,0
1570468238781.25,-60,26,19,0,0,0,0,0
1570468238812.5,-57,26,19,0,0,0,0,0
1570468238843.75,-58,27,19,0,0,0,0,0
1570468238875,-51,26,21,0,0,0,0,0
1570468238906.25,-55,25,21,0,0,0,0,0
1570468238937.5,-56,25,20,0,0,0,0,0
1570468238968.75,-55,26,20,0,0,0,0,0
1570468239000,-54,26,21,0,0,0,0,0
1570468239031.25,-54,26,21,0,0,0,0,0
1570468239062.5,-52,27,23,0,0,0,0,0
1570468239093.75,-52,28,22,0,0,0,0,0
1570468239125,-50,27,23,0,0,0,0,0
1570468239156.25,-52,26,21,0,0,0,0,0
1570468239187.5,-54,26,21,0,0,0,0,0
1570468239218.75,-56,28,21,0,0,0,0,0
1570468239250,-55,28,21,0,0,0,0,0
1570468239281.25,-56,28,20,0,0,0,0,0
1570468239312.5,-56,26,20,0,0,0,0,0
1570468239343.75,-52,27,22,0,0,0,0,0
1570468239375,-53,26,21,0,0,0,0,0
1570468239406.25,-57,28,22,0,0,0,0,0
1570468239437.5,-54,28,25,0,0,0,0,0
1570468239468.75,-49,27,25,0,0,0,0,0
1570468239500,-50,27,24,0,0,0,0,0
1570468239531.25,-53,27,22,0,0,0,0,0
1570468239562.5,-55,29,22,0,0,0,0,0
1570468239593.75,-55,30,22,0,0,0,0,0
1570468239625,-53,29,24,0,0,0,0,0
1570468239656.25,-52,29,24,0,0,0,0,0
1570468239687.5,-50,28,26,0,0,0,0,0
1570468239718.75,-52,27,27,0,0,0,0,0
1570468239750,-49,28,29,0,0,0,0,0
1570468239781.25,-53,29,27,0,0,0,0,0
1570468239812.5,-52,32,24,0,0,0,0,0
1570468239843.75,-49,31,24,0,0,0,0,0
1570468239875,-48,32,25,0,0,0,0,0
1570468239906.25,-49,33,26,0,0,0,0,0
1570468239937.5,-47,34,26,0,0,0,0,0
1570468239968.75,-43,31,26,0,0,0,0,0
1570468240000,-42,31,29,0,0,0,0,0
1570468240031.25,-51,31,26,0,0,0,0,0
1570468240062.5,-51,31,27,0,0,0,0,0
1570468240093.75,-47,33,27,0,0,0,0,0
1570468240125,-53,31,29,0,0,0,0,0
1570468240156.25,-48,32,28,0,0,0,0,0
1570468240187.5,-44,31,29,0,0,0,0,0
1570468240218.75,-41,32,28,0,0,0,0,0
1570468240250,-40,32,28,0,0,0,0,0
1570468240281.25,-53,30,26,0,0,0,0,0
1570468240312.5,-53,32,26,0,0,0,0,0
1570468240343.75,-45,31,29,0,0,0,0,0
1570468240375,-50,30,27,0,0,0,0,0
1570468240406.25,-53,30,26,0,0,0,0,0
1570468240437.5,-53,31,27,0,0,0,0,0
1570468240468.75,-62,31,30,0,0,0,0,0
1570468240500,-37,38,21,0,0,0,0,0
1570468240531.25,-49,34,28,0,0,0,0,0
1570468240562.5,-44,32,32,0,0,0,0,0
1570468240593.75,-35,31,33,0,0,0,0,0
1570468240625,-41,21,41,0,0,0,0,0
1570468240656.25,-42,21,43,0,0,0,0,0
1570468240687.5,-50,34,30,0,0,0,0,0
1570468240718.75,-47,37,25,0,0,0,0,0
1570468240750,-48,33,27,0,0,0,0,0
1570468240781.25,-47,33,26,0,0,0,0,0
1570468240812.5,-46,33,30,0,0,0,0,0
1570468240843.75,-50,31,29,0,0,0,0,0
1570468240875,-50,33,24,0,0,0,0,0
1570468240906.25,-46,32,25,0,0,0,0,0
1570468240937.5,-41,34,25,0,0,0,0,0
1570468240968.75,-37,33,24,0,0,0,0,0
1570468241000,-54,28,20,0,0,0,0,0
1570468241031.25,-59,27,19,0,0,0,0,0
1570468241062.5,-64,27,17,0,0,0,0,0
1570468241093.75,-61,23,21,0,0,0,0,0
1570468241125,-58,22,25,0,0,0,0,0
1570468241156.25,-63,22,22,0,0,0,0,0
1570468241187.5,-66,22,17,0,0,0,0,0
1570468241218.75,-67,25,16,0,0,0,0,0
1570468241250,-53,26,21,0,0,0,0,0
1570468241281.25,-45,26,21,0,0,0,0,0
1570468241312.5,-46,24,14,0,0,0,0,0
1570468241343.75,-47,23,13,0,0,0,0,0
1570468241375,-52,28,14,0,0,0,0,0
1570468241406.25,-69,24,14,0,0,0,0,0
1570468241437.5,-60,24,8,0,0,0,0,0
1570468241468.75,-64,23,8,0,0,0,0,0
1570468241500,-61,23,10,0,0,0,0,0
1570468241531.25,-64,22,8,0,0,0,0,0
1570468241562.5,-62,22,8,0,0,0,0,0
1570468241593.75,-57,25,10,0,0,0,0,0
1570468241625,-57,24,11,0,0,0,0,0
1570468241656.25,-53,22,14,0,0,0,0,0
1570468241687.5,-55,21,14,0,0,0,0,0
1570468241718.75,-53,22,12,0,0,0,0,0
1570468241750,-55,23,13,0,0,0,0,0
1570468241781.25,-64,22,11,0,0,0,0,0
1570468241812.5,-66,22,10,0,0,0,0,0
1570468241843.75,-63,23,8,0,0,0,0,0
1570468241875,-56,22,12,0,0,0,0,0
1570468241906.25,-59,21,12,0,0,0,0,0
1570468241937.5,-62,23,10,0,0,0,0,0
1570468241968.75,-62,24,11,0,0,0,0,0
1570468242000,-59,23,13,0,0,0,0,0
1570468242031.25,-58,22,14,0,0,0,0,0
1570468242062.5,-54,23,15,0,0,0,0,0
1570468242093.75,-54,23,14,0,0,0,0,0
1570468242125,-57,24,15,0,0,0,0,0
1570468242156.25,-57,24,15,0,0,0,0,0
1570468242187.5,-56,22,16,0,0,0,0,0
1570468242218.75,-60,23,15,0,0,0,0,0
1570468242250,-63,23,15,0,0,0,0,0
1570468242281.25,-65,23,16,0,0,0,0,0
1570468242312.5,-64,23,16,0,0,0,0,0
1570468242343.75,-62,26,15,0,0,0,0,0
1570468242375,-59,26,18,0,0,0,0,0
1570468242406.25,-50,27,24,0,0,0,0,0
1570468242437.5,-42,27,26,0,0,0,0,0
1570468242468.75,-40,29,24,0,0,0,0,0
1570468242500,-46,30,24,0,0,0,0,0
1570468242531.25,-49,32,24,0,0,0,0,0
1570468242562.5,-47,34,26,0,0,0,0,0
1570468242593.75,-50,31,27,0,0,0,0,0
1570468242625,-50,30,26,0,0,0,0,0
1570468242656.25,-50,31,26,0,0,0,0,0
1570468242687.5,-46,32,26,0,0,0,0,0
1570468242718.75,-45,30,26,0,0,0,0,0
1570468242750,-47,31,26,0,0,0,0,0
1570468242781.25,-49,31,26,0,0,0,0,0
1570468242812.5,-50,30,25,0,0,0,0,0
1570468242843.75,-52,29,25,0,0,0,0,0
1570468242875,-55,31,25,0,0,0,0,0
1570468242906.25,-52,31,25,0,0,0,0,0
1570468242937.5,-48,31,25,0,0,0,0,0
1570468242968.75,-48,32,25,0,0,0,0,0
1570468243000,-49,32,24,0,0,0,0,0
1570468243031.25,-49,31,24,0,0,0,0,0
1570468243062.5,-50,31,26,0,0,0,0,0
1570468243093.75,-49,31,27,0,0,0,0,0
1570468243125,-50,30,28,0,0,0,0,0
1570468243156.25,-50,30,27,0,0,0,0,0
1570468243187.5,-50,29,27,0,0,0,0,0
1570468243218.75,-51,30,28,0,0,0,0,0
1570468243250,-50,31,28,0,0,0,0,0
1570468243281.25,-49,31,27,0,0,0,0,0
1570468243312.5,-49,31,26,0,0,0,0,0
1570468243343.75,-49,31,26,0,0,0,0,0
1570468243375,-48,32,27,0,0,0,0,0
1570468243406.25,-46,33,27,0,0,0,0,0
1570468243437.5,-49,32,26,0,0,0,0,0
1570468243468.75,-48,32,27,0,0,0,0,0
1570468243500,-47,31,28,0,0,0,0,0
1570468243531.25,-46,32,28,0,0,0,0,0
1570468243562.5,-51,29,30,0,0,0,0,0
1570468243593.75,-48,27,31,0,0,0,0,0
1570468243625,-48,32,28,0,0,0,0,0
1570468243656.25,-50,34,27,0,0,0,0,0
1570468243687.5,-49,33,27,0,0,0,0,0
1570468243718.75,-47,32,26,0,0,0,0,0
1570468243750,-43,31,26,0,0,0,0,0
1570468243781.25,-52,29,26,0,0,0,0,0
1570468243812.5,-54,32,26,0,0,0,0,0
1570468243843.75,-52,33,26,0,0,0,0,0
1570468243875,-50,34,27,0,0,0,0,0
1570468243906.25,-46,35,27,0,0,0,0,0
1570468243937.5,-42,32,30,0,0,0,0,0
1570468243968.75,-46,29,28,0,0,0,0,0
1570468244000,-47,28,29,0,0,0,0,0
1570468244031.25,-51,29,28,0,0,0,0,0
1570468244062.5,-51,30,28,0,0,0,0,0
1570468244093.75,-48,31,29,0,0,0,0,0
1570468244125,-47,32,30,0,0,0,0,0
1570468244156.25,-47,32,29,0,0,0,0,0
1570468244187.5,-48,33,28,0,0,0,0,0
1570468244218.75,-48,32,27,0,0,0,0,0
1570468244250,-49,32,27,0,0,0,0,0
1570468244281.25,-49,32,26,0,0,0,0,0
1570468244312.5,-48,32,27,0,0,0,0,0
1570468244343.75,-50,31,27,0,0,0,0,0
1570468244375,-48,31,28,0,0,0,0,0
1570468244406.25,-49,31,27,0,0,0,0,0
1570468244437.5,-49,32,28,0,0,0,0,0
1570468244468.75,-49,31,28,0,0,0,0,0
1570468244500,-48,31,28,0,0,0,0,0
1570468244531.25,-48,31,28,0,0,0,0,0
1570468244562.5,-48,31,28,0,0,0,0,0
1570468244593.75,-49,32,28,0,0,0,0,0
1570468244625,-48,33,28,0,0,0,0,0
1570468244656.25,-48,33,27,0,0,0,0,0
1570468244687.5,-45,33,29,0,0,0,0,0
1570468244718.75,-46,33,29,0,0,0,0,0
1570468244750,-47,32,28,0,0,0,0,0
1570468244781.25,-46,32,27,0,0,0,0,0
1570468244812.5,-47,32,27,0,0,0,0,0
1570468244843.75,-49,33,27,0,0,0,0,0
1570468244875,-48,32,27,0,0,0,0,0
1570468244906.25,-47,34,27,0,0,0,0,0
1570468244937.5,-47,33,27,0,0,0,0,0
1570468244968.75,-49,32,28,0,0,0,0,0
1570468245000,-51,31,28,0,0,0,0,0
1570468245031.25,-50,31,27,0,0,0,0,0
1570468245062.5,-49,31,27,0,0,0,0,0
1570468245093.75,-46,33,26,0,0,0,0,0
1570468245125,-47,33,25,0,0,0,0,0
1570468245156.25,-46,32,24,0,0,0,0,0
1570468245187.5,-48,32,26,0,0,0,0,0
1570468245218.75,-50,31,25,0,0,0,0,0
1570468245250,-51,33,26,0,0,0,0,0
1570468245281.25,-51,33,25,0,0,0,0,0
1570468245312.5,-51,32,21,0,0,0,0,0
1570468245343.75,-49,31,20,0,0,0,0,0
1570468245375,-50,32,24,0,0,0,0,0
1570468245406.25,-50,29,23,0,0,0,0,0
1570468245437.5,-53,30,24,0,0,0,0,0
1570468245468.75,-53,30,24,0,0,0,0,0
1570468245500,-53,35,25,0,0,0,0,0
1570468245531.25,-53,37,20,0,0,0,0,0
1570468245562.5,-52,37,18,0,0,0,0,0
1570468245593.75,-48,34,20,0,0,0,0,0
1570468245625,-44,33,22,0,0,0,0,0
1570468245656.25,-50,30,20,0,0,0,0,0
1570468245687.5,-51,29,21,0,0,0,0,0
1570468245718.75,-49,34,27,0,0,0,0,0
1570468245750,-50,35,29,0,0,0,0,0
1570468245781.25,-50,33,25,0,0,0,0,0
1570468245812.5,-49,31,25,0,0,0,0,0
1570468245843.75,-47,31,23,0,0,0,0,0
1570468245875,-47,31,23,0,0,0,0,0
1570468245906.25,-49,30,24,0,0,0,0,0
1570468245937.5,-49,28,25,0,0,0,0,0
1570468245968.75,-52,27,25,0,0,0,0,0
1570468246000,-55,28,24,0,0,0,0,0
1570468246031.25,-57,28,23,0,0,0,0,0
1570468246062.5,-55,27,23,0,0,0,0,0
1570468246093.75,-54,28,23,0,0,0,0,0
1570468246125,-50,30,21,0,0,0,0,0
1570468246156.25,-50,31,20,0,0,0,0,0
1570468246187.5,-50,29,18,0,0,0,0,0
1570468246218.75,-51,29,17,0,0,0,0,0
1570468246250,-59,31,15,0,0,0,0,0
1570468246281.25,-60,31,15,0,0,0,0,0
1570468246312.5,-54,28,20,0,0,0,0,0
1570468246343.75,-53,28,20,0,0,0,0,0
1570468246375,-52,25,21,0,0,0,0,0
1570468246406.25,-53,26,20,0,0,0,0,0
1570468246437.5,-55,27,20,0,0,0,0,0
1570468246468.75,-54,28,20,0,0,0,0,0
1570468246500,-55,28,19,0,0,0,0,0
1570468246531.25,-52,29,19,0,0,0,0,0
1570468246562.5,-49,30,22,0,0,0,0,0
1570468246593.75,-56,26,22,0,0,0,0,0
1570468246625,-57,26,23,0,0,0,0,0
1570468246656.25,-55,26,19,0,0,0,0,0
1570468246687.5,-53,27,18,0,0,0,0,0
1570468246718.75,-52,31,18,0,0,0,0,0
1570468246750,-52,29,16,0,0,0,0,0
1570468246781.25,-56,27,14,0,0,0,0,0
1570468246812.5,-56,29,15,0,0,0,0,0
1570468246843.75,-55,30,18,0,0,0,0,0
1570468246875,-55,29,19,0,0,0,0,0
1570468246906.25,-55,27,19,0,0,0,0,0
1570468246937.5,-55,27,19,0,0,0,0,0
1570468246968.75,-57,28,18,0,0,0,0,0
1570468247000,-57,27,17,0,0,0,0,0
1570468247031.25,-58,27,16,0,0,0,0,0
1570468247062.5,-56,26,17,0,0,0,0,0
1570468247093.75,-56,27,18,0,0,0,0,0
1570468247125,-55,26,18,0,0,0,0,0
1570468247156.25,-52,27,18,0,0,0,0,0
1570468247187.5,-52,29,16,0,0,0,0,0
1570468247218.75,-54,29,13,0,0,0,0,0
1570468247250,-54,27,13,0,0,0,0,0
1570468247281.25,-55,26,12,0,0,0,0,0
1570468247312.5,-59,27,13,0,0,0,0,0
1570468247343.75,-63,23,17,0,0,0,0,0
1570468247375,-62,22,19,0,0,0,0,0
1570468247406.25,-60,22,18,0,0,0,0,0
1570468247437.5,-61,22,17,0,0,0,0,0
1570468247468.75,-60,24,14,0,0,0,0,0
1570468247500,-58,25,15,0,0,0,0,0
1570468247531.25,-52,27,13,0,0,0,0,0
1570468247562.5,-49,28,11,0,0,0,0,0
1570468247593.75,-50,27,11,0,0,0,0,0
1570468247625,-54,25,11,0,0,0,0,0
1570468247656.25,-57,24,9,0,0,0,0,0
1570468247687.5,-62,24,10,0,0,0,0,0
1570468247718.75,-62,24,12,0,0,0,0,0
1570468247750,-58,22,11,0,0,0,0,0
1570468247781.25,-58,24,9,0,0,0,0,0
1570468247812.5,-59,23,10,0,0,0,0,0
1570468247843.75,-59,22,9,0,0,0,0,0
1570468247875,-64,23,7,0,0,0,0,0
1570468247906.25,-63,24,9,0,0,0,0,0
1570468247937.5,-62,26,11,0,0,0,0,0
1570468247968.75,-60,26,11,0,0,0,0,0
1570468248000,-62,24,12,0,0,0,0,0
1570468248031.25,-57,25,10,0,0,0,0,0
1570468248062.5,-56,26,11,0,0,0,0,0
1570468248093.75,-53,27,11,0,0,0,0,0
1570468248125,-55,28,12,0,0,0,0,0
1570468248156.25,-59,30,14,0,0,0,0,0
1570468248187.5,-61,30,19,0,0,0,0,0
1570468248218.75,-51,30,23,0,0,0,0,0
1570468248250,-45,27,24,0,0,0,0,0
1570468248281.25,-46,30,21,0,0,0,0,0
1570468248312.5,-46,32,20,0,0,0,0,0
1570468248343.75,-51,31,23,0,0,0,0,0
1570468248375,-54,30,21,0,0,0,0,0
1570468248406.25,-53,29,23,0,0,0,0,0
1570468248437.5,-51,33,24,0,0,0,0,0
1570468248468.75,-51,34,22,0,0,0,0,0
1570468248500,-46,33,18,0,0,0,0,0
1570468248531.25,-42,30,19,0,0,0,0,0
1570468248562.5,-49,27,22,0,0,0,0,0
1570468248593.75,-52,26,20,0,0,0,0,0
1570468248625,-60,28,21,0,0,0,0,0
1570468248656.25,-63,28,21,0,0,0,0,0
1570468248687.5,-58,26,24,0,0,0,0,0
1570468248718.75,-56,25,23,0,0,0,0,0
1570468248750,-50,25,23,0,0,0,0,0
1570468248781.25,-50,29,21,0,0,0,0,0
1570468248812.5,-49,31,22,0,0,0,0,0
1570468248843.75,-49,34,25,0,0,0,0,0
1570468248875,-47,36,25,0,0,0,0,0
1570468248906.25,-50,34,22,0,0,0,0,0
1570468248937.5,-50,33,21,0,0,0,0,0
1570468248968.75,-50,34,21,0,0,0,0,0
1570468249000,-49,34,23,0,0,0,0,0
1570468249031.25,-48,33,24,0,0,0,0,0
1570468249062.5,-48,31,24,0,0,0,0,0
1570468249093.75,-50,28,22,0,0,0,0,0
1570468249125,-54,27,20,0,0,0,0,0
1570468249156.25,-53,33,19,0,0,0,0,0
1570468249187.5,-54,36,19,0,0,0,0,0
1570468249218.75,-54,35,18,0,0,0,0,0
1570468249250,-48,32,22,0,0,0,0,0
1570468249281.25,-47,32,27,0,0,0,0,0
1570468249312.5,-53,29,30,0,0,0,0,0
1570468249343.75,-54,25,27,0,0,0,0,0
1570468249375,-53,21,23,0,0,0,0,0
1570468249406.25,-52,22,25,0,0,0,0,0
1570468249437.5,-49,29,26,0,0,0,0,0
1570468249468.75,-51,33,27,0,0,0,0,0
1570468249500,-52,36,24,0,0,0,0,0
1570468249531.25,-54,36,21,0,0,0,0,0
1570468249562.5,-55,32,19,0,0,0,0,0
1570468249593.75,-54,29,23,0,0,0,0,0
1570468249625,-52,28,25,0,0,0,0,0
1570468249656.25,-53,29,28,0,0,0,0,0
1570468249687.5,-49,29,28,0,0,0,0,0
1570468249718.75,-41,32,32,0,0,0,0,0
1570468249750,-39,34,30,0,0,0,0,0
1570468249781.25,-45,33,24,0,0,0,0,0
1570468249812.5,-43,31,25,0,0,0,0,0
1570468249843.75,-48,30,29,0,0,0,0,0
1570468249875,-49,30,30,0,0,0,0,0
1570468249906.25,-47,31,30,0,0,0,0,0
1570468249937.5,-47,30,30,0,0,0,0,0
1570468249968.75,-50,27,27,0,0,0,0,0
1570468250000,-51,26,26,0,0,0,0,0
1570468250031.25,-53,27,24,0,0,0,0,0
1570468250062.5,-56,28,21,0,0,0,0,0
1570468250093.75,-58,28,19,0,0,0,0,0
1570468250125,-59,29,16,0,0,0,0,0
1570468250156.25,-57,29,16,0,0,0,0,0
1570468250187.5,-55,32,17,0,0,0,0,0
1570468250218.75,-56,32,18,0,0,0,0,0
1570468250250,-57,27,17,0,0,0,0,0
1570468250281.25,-58,25,17,0,0,0,0,0
1570468250312.5,-60,24,17,0,0,0,0,0
1570468250343.75,-60,25,20,0,0,0,0,0
1570468250375,-53,28,26,0,0,0,0,0
1570468250406.25,-50,29,26,0,0,0,0,0
1570468250437.5,-49,27,27,0,0,0,0,0
1570468250468.75,-49,27,27,0,0,0,0,0
1570468250500,-46,29,29,0,0,0,0,0
1570468250531.25,-45,32,30,0,0,0,0,0
1570468250562.5,-44,34,31,0,0,0,0,0
1570468250593.75,-45,35,30,0,0,0,0,0
1570468250625,-45,36,31,0,0,0,0,0
1570468250656.25,-41,37,31,0,0,0,0,0
1570468250687.5,-35,38,32,0,0,0,0,0
1570468250718.75,-32,37,29,0,0,0,0,0
1570468250750,-36,36,28,0,0,0,0,0
1570468250781.25,-41,35,31,0,0,0,0,0
1570468250812.5,-42,33,33,0,0,0,0,0
1570468250843.75,-46,34,34,0,0,0,0,0
1570468250875,-46,34,35,0,0,0,0,0
1570468250906.25,-42,33,36,0,0,0,0,0
1570468250937.5,-43,30,36,0,0,0,0,0
1570468250968.75,-47,27,34,0,0,0,0,0
1570468251000,-52,30,29,0,0,0,0,0
1570468251031.25,-50,32,28,0,0,0,0,0
1570468251062.5,-44,37,30,0,0,0,0,0
1570468251093.75,-45,36,29,0,0,0,0,0
1570468251125,-41,29,31,0,0,0,0,0
1570468251156.25,-49,29,29,0,0,0,0,0
1570468251187.5,-47,30,30,0,0,0,0,0
1570468251218.75,-49,31,31,0,0,0,0,0
1570468251250,-50,33,20,0,0,0,0,0
1570468251281.25,-44,35,23,0,0,0,0,0
1570468251312.5,-46,32,29,0,0,0,0,0
1570468251343.75,-47,28,35,0,0,0,0,0
1570468251375,-48,27,32,0,0,0,0,0
1570468251406.25,-48,27,28,0,0,0,0,0
1570468251437.5,-50,28,27,0,0,0,0,0
1570468251468.75,-54,29,27,0,0,0,0,0
1570468251500,-57,30,25,0,0,0,0,0
1570468251531.25,-56,31,23,0,0,0,0,0
1570468251562.5,-55,31,22,0,0,0,0,0
1570468251593.75,-52,29,21,0,0,0,0,0
1570468251625,-53,29,20,0,0,0,0,0
1570468251656.25,-47,31,20,0,0,0,0,0
1570468251687.5,-45,34,21,0,0,0,0,0
1570468251718.75,-48,34,19,0,0,0,0,0
1570468251750,-54,30,22,0,0,0,0,0
1570468251781.25,-56,29,24,0,0,0,0,0
1570468251812.5,-57,29,27,0,0,0,0,0
1570468251843.75,-56,28,28,0,0,0,0,0
1570468251875,-50,26,26,0,0,0,0,0
1570468251906.25,-48,26,25,0,0,0,0,0
1570468251937.5,-49,29,23,0,0,0,0,0
1570468251968.75,-50,31,23,0,0,0,0,0
1570468252000,-56,33,23,0,0,0,0,0
1570468252031.25,-49,31,22,0,0,0,0,0
1570468252062.5,-41,30,24,0,0,0,0,0
1570468252093.75,-48,32,24,0,0,0,0,0
1570468252125,-53,29,21,0,0,0,0,0
1570468252156.25,-53,26,24,0,0,0,0,0
1570468252187.5,-56,27,21,0,0,0,0,0
1570468252218.75,-57,30,16,0,0,0,0,0
1570468252250,-56,32,17,0,0,0,0,0
1570468252281.25,-51,34,24,0,0,0,0,0
1570468252312.5,-48,31,28,0,0,0,0,0
1570468252343.75,-54,25,25,0,0,0,0,0
1570468252375,-52,26,25,0,0,0,0,0
1570468252406.25,-45,36,23,0,0,0,0,0
1570468252437.5,-53,40,16,0,0,0,0,0
1570468252468.75,-50,44,14,0,0,0,0,0
1570468252500,-52,37,14,0,0,0,0,0
1570468252531.25,-58,33,11,0,0,0,0,0
1570468252562.5,-64,24,13,0,0,0,0,0
1570468252593.75,-60,21,19,0,0,0,0,0
1570468252625,-51,25,25,0,0,0,0,0
1570468252656.25,-46,24,22,0,0,0,0,0
1570468252687.5,-45,27,17,0,0,0,0,0
1570468252718.75,-51,27,14,0,0,0,0,0
1570468252750,-52,25,16,0,0,0,0,0
1570468252781.25,-51,25,17,0,0,0,0,0
1570468252812.5,-58,15,20,0,0,0,0,0
1570468252843.75,-81,7,10,0,0,0,0,0
1570468252875,-86,10,6,0,0,0,0,0
1570468252906.25,-58,22,18,0,0,0,0,0
1570468252937.5,-44,22,26,0,0,0,0,0
1570468252968.75,-40,15,25,0,0,0,0,0
1570468253000,-47,11,22,0,0,0,0,0
1570468253031.25,-63,15,14,0,0,0,0,0
1570468253062.5,-67,17,13,0,0,0,0,0
1570468253093.75,-66,20,13,0,0,0,0,0
1570468253125,-69,20,11,0,0,0,0,0
1570468253156.25,-58,19,11,0,0,0,0,0
1570468253187.5,-57,19,9,0,0,0,0,0
1570468253218.75,-52,18,9,0,0,0,0,0
1570468253250,-58,19,8,0,0,0,0,0
1570468253281.25,-62,20,9,0,0,0,0,0
1570468253312.5,-63,24,8,0,0,0,0,0
1570468253343.75,-64,25,8,0,0,0,0,0
1570468253375,-63,26,11,0,0,0,0,0
1570468253406.25,-63,26,9,0,0,0,0,0
1570468253437.5,-60,23,9,0,0,0,0,0
1570468253468.75,-54,22,9,0,0,0,0,0
1570468253500,-59,18,5,0,0,0,0,0
1570468253531.25,-62,17,3,0,0,0,0,0
1570468253562.5,-62,16,6,0,0,0,0,0
1570468253593.75,-67,18,4,0,0,0,0,0
1570468253625,-69,18,6,0,0,0,0,0
1570468253656.25,-66,18,9,0,0,0,0,0
1570468253687.5,-58,20,16,0,0,0,0,0
1570468253718.75,-53,23,18,0,0,0,0,0
1570468253750,-50,25,19,0,0,0,0,0
1570468253781.25,-57,26,17,0,0,0,0,0
1570468253812.5,-55,25,19,0,0,0,0,0
1570468253843.75,-52,23,20,0,0,0,0,0
1570468253875,-48,27,21,0,0,0,0,0
1570468253906.25,-46,37,22,0,0,0,0,0
1570468253937.5,-53,36,21,0,0,0,0,0
1570468253968.75,-52,37,20,0,0,0,0,0
1570468254000,-49,40,23,0,0,0,0,0
1570468254031.25,-43,39,23,0,0,0,0,0
1570468254062.5,-43,39,19,0,0,0,0,0
1570468254093.75,-18,38,19,0,0,0,0,0
1570468254125,-49,49,13,0,0,0,0,0
1570468254156.25,-55,48,9,0,0,0,0,0
1570468254187.5,-55,51,16,0,0,0,0,0
1570468254218.75,-56,50,15,0,0,0,0,0
1570468254250,-43,31,27,0,0,0,0,0
1570468254281.25,-42,24,31,0,0,0,0,0
1570468254312.5,-52,20,35,0,0,0,0,0
1570468254343.75,-54,24,32,0,0,0,0,0
1570468254375,-50,29,33,0,0,0,0,0
1570468254406.25,-46,29,34,0,0,0,0,0
1570468254437.5,-37,34,39,0,0,0,0,0
1570468254468.75,-31,39,38,0,0,0,0,0
1570468254500,-29,38,37,0,0,0,0,0
1570468254531.25,-30,38,35,0,0,0,0,0
1570468254562.5,-34,40,34,0,0,0,0,0
1570468254593.75,-34,38,31,0,0,0,0,0
1570468254625,-33,41,29,0,0,0,0,0
1570468254656.25,-39,45,27,0,0,0,0,0
1570468254687.5,-33,46,31,0,0,0,0,0
1570468254718.75,-32,44,38,0,0,0,0,0
1570468254750,-38,43,39,0,0,0,0,0
1570468254781.25,-50,36,39,0,0,0,0,0
1570468254812.5,-44,37,37,0,0,0,0,0
1570468254843.75,-35,36,40,0,0,0,0,0
1570468254875,-34,35,41,0,0,0,0,0
1570468254906.25,-30,31,42,0,0,0,0,0
1570468254937.5,-31,28,42,0,0,0,0,0
1570468254968.75,-32,28,42,0,0,0,0,0
1570468255000,-30,28,44,0,0,0,0,0
1570468255031.25,-31,32,43,0,0,0,0,0
1570468255062.5,-34,42,40,0,0,0,0,0
1570468255093.75,-35,42,38,0,0,0,0,0
1570468255125,-35,40,36,0,0,0,0,0
1570468255156.25,-33,40,36,0,0,0,0,0
1570468255187.5,-35,38,38,0,0,0,0,0
1570468255218.75,-34,38,38,0,0,0,0,0
1570468255250,-35,39,38,0,0,0,0,0
1570468255281.25,-41,39,36,0,0,0,0,0
1570468255312.5,-42,38,35,0,0,0,0,0
1570468255343.75,-38,34,37,0,0,0,0,0
1570468255375,-41,32,39,0,0,0,0,0
1570468255406.25,-22,22,50,0,0,0,0,0
1570468255437.5,-18,31,45,0,0,0,0,0
1570468255468.75,-38,47,38,0,0,0,0,0
1570468255500,-53,46,32,0,0,0,0,0
1570468255531.25,-53,46,28,0,0,0,0,0
1570468255562.5,-37,43,35,0,0,0,0,0
1570468255593.75,-34,42,33,0,0,0,0,0
1570468255625,-32,40,34,0,0,0,0,0
1570468255656.25,-37,42,33,0,0,0,0,0
1570468255687.5,-46,42,28,0,0,0,0,0
1570468255718.75,-44,38,27,0,0,0,0,0
1570468255750,-47,31,31,0,0,0,0,0
1570468255781.25,-47,29,32,0,0,0,0,0
1570468255812.5,-47,23,37,0,0,0,0,0
1570468255843.75,-43,22,39,0,0,0,0,0
1570468255875,-50,27,36,0,0,0,0,0
1570468255906.25,-80,14,53,0,0,0,0,0
1570468255937.5,-19,19,19,0,0,0,0,0
1570468255968.75,-32,19,30,0,0,0,0,0
1570468256000,-45,16,36,0,0,0,0,0
1570468256031.25,-49,17,37,0,0,0,0,0
1570468256062.5,-54,16,36,0,0,0,0,0
1570468256093.75,-50,17,36,0,0,0,0,0
1570468256125,-51,17,34,0,0,0,0,0
1570468256156.25,-51,15,40,0,0,0,0,0
1570468256187.5,-52,22,34,0,0,0,0,0
1570468256218.75,-50,23,31,0,0,0,0,0
1570468256250,-49,18,31,0,0,0,0,0
1570468256281.25,-47,13,27,0,0,0,0,0
1570468256312.5,-47,8,29,0,0,0,0,0
1570468256343.75,-57,10,30,0,0,0,0,0
1570468256375,-50,8,32,0,0,0,0,0
1570468256406.25,-65,17,35,0,0,0,0,0
1570468256437.5,-65,19,32,0,0,0,0,0
1570468256468.75,-59,18,29,0,0,0,0,0
1570468256500,-53,23,33,0,0,0,0,0
1570468256531.25,-51,23,34,0,0,0,0,0
1570468256562.5,-49,22,35,0,0,0,0,0
1570468256593.75,-45,20,35,0,0,0,0,0
1570468256625,-50,18,38,0,0,0,0,0
1570468256656.25,-48,19,39,0,0,0,0,0
1570468256687.5,-45,18,42,0,0,0,0,0
1570468256718.75,-40,25,40,0,0,0,0,0
1570468256750,-33,34,41,0,0,0,0,0
1570468256781.25,-34,35,38,0,0,0,0,0
1570468256812.5,-40,34,36,0,0,0,0,0
1570468256843.75,-40,35,39,0,0,0,0,0
1570468256875,-38,36,42,0,0,0,0,0
1570468256906.25,-36,38,38,0,0,0,0,0
1570468256937.5,-38,39,38,0,0,0,0,0
1570468256968.75,-39,40,42,0,0,0,0,0
1570468257000,-39,40,43,0,0,0,0,0
1570468257031.25,-42,37,37,0,0,0,0,0
1570468257062.5,-38,36,37,0,0,0,0,0
1570468257093.75,-32,31,39,0,0,0,0,0
1570468257125,-33,28,38,0,0,0,0,0
1570468257156.25,-35,25,33,0,0,0,0,0
1570468257187.5,-37,25,37,0,0,0,0,0
1570468257218.75,-45,21,34,0,0,0,0,0
1570468257250,-50,19,33,0,0,0,0,0
1570468257281.25,-48,17,41,0,0,0,0,0
1570468257312.5,-39,18,44,0,0,0,0,0
1570468257343.75,-46,19,45,0,0,0,0,0
1570468257375,-51,22,45,0,0,0,0,0
1570468257406.25,-55,24,40,0,0,0,0,0
1570468257437.5,-58,29,41,0,0,0,0,0
1570468257468.75,-58,25,42,0,0,0,0,0
1570468257500,-35,22,40,0,0,0,0,0
1570468257531.25,-34,23,36,0,0,0,0,0
1570468257562.5,-49,26,27,0,0,0,0,0
1570468257593.75,-54,24,27,0,0,0,0,0
1570468257625,-39,22,37,0,0,0,0,0
1570468257656.25,-38,23,39,0,0,0,0,0
1570468257687.5,-44,25,38,0,0,0,0,0
1570468257718.75,-43,40,41,0,0,0,0,0
1570468257750,-38,42,42,0,0,0,0,0
1570468257781.25,-34,32,43,0,0,0,0,0
1570468257812.5,-31,35,42,0,0,0,0,0
1570468257843.75,-37,40,39,0,0,0,0,0
1570468257875,-39,42,37,0,0,0,0,0
1570468257906.25,-39,33,41,0,0,0,0,0
1570468257937.5,-40,32,41,0,0,0,0,0
1570468257968.75,-39,31,39,0,0,0,0,0
1570468258000,-42,32,32,0,0,0,0,0
1570468258031.25,-38,26,32,0,0,0,0,0
1570468258062.5,-32,22,36,0,0,0,0,0
1570468258093.75,-34,20,43,0,0,0,0,0
1570468258125,-51,24,41,0,0,0,0,0
1570468258156.25,-56,27,38,0,0,0,0,0
1570468258187.5,-33,24,34,0,0,0,0,0
1570468258218.75,-37,21,29,0,0,0,0,0
1570468258250,-52,20,31,0,0,0,0,0
1570468258281.25,-56,24,36,0,0,0,0,0
1570468258312.5,-59,25,42,0,0,0,0,0
1570468258343.75,-58,29,42,0,0,0,0,0
1570468258375,-50,27,40,0,0,0,0,0
1570468258406.25,-52,25,43,0,0,0,0,0
1570468258437.5,-50,25,33,0,0,0,0,0
1570468258468.75,-54,22,36,0,0,0,0,0
1570468258500,-57,21,35,0,0,0,0,0
1570468258531.25,-57,28,30,0,0,0,0,0
1570468258562.5,-54,28,30,0,0,0,0,0
1570468258593.75,-53,34,29,0,0,0,0,0
1570468258625,-51,38,23,0,0,0,0,0
1570468258656.25,-43,43,24,0,0,0,0,0
1570468258687.5,-46,43,24,0,0,0,0,0
1570468258718.75,-49,46,22,0,0,0,0,0
1570468258750,-38,43,26,0,0,0,0,0
1570468258781.25,-32,45,25,0,0,0,0,0
1570468258812.5,-32,43,23,0,0,0,0,0
1570468258843.75,-26,41,20,0,0,0,0,0
1570468258875,-25,40,19,0,0,0,0,0
1570468258906.25,-25,34,29,0,0,0,0,0
1570468258937.5,-23,34,31,0,0,0,0,0
1570468258968.75,-24,31,32,0,0,0,0,0
1570468259000,-25,26,40,0,0,0,0,0
1570468259031.25,-34,24,43,0,0,0,0,0
1570468259062.5,-50,22,32,0,0,0,0,0
1570468259093.75,-50,20,31,0,0,0,0,0
1570468259125,-72,19,27,0,0,0,0,0
1570468259156.25,-68,20,25,0,0,0,0,0
1570468259187.5,-66,23,24,0,0,0,0,0
1570468259218.75,-56,26,21,0,0,0,0,0
1570468259250,-51,35,8,0,0,0,0,0
1570468259281.25,-57,38,9,0,0,0,0,0
1570468259312.5,-61,42,21,0,0,0,0,0
1570468259343.75,-69,44,18,0,0,0,0,0
1570468259375,-59,47,11,0,0,0,0,0
1570468259406.25,-63,29,12,0,0,0,0,0
1570468259437.5,-63,22,13,0,0,0,0,0
1570468259468.75,-55,22,13,0,0,0,0,0
1570468259500,-53,26,10,0,0,0,0,0
1570468259531.25,-44,27,19,0,0,0,0,0
1570468259562.5,-45,17,17,0,0,0,0,0
1570468259593.75,-60,24,19,0,0,0,0,0
1570468259625,-56,23,19,0,0,0,0,0
1570468259656.25,-53,24,21,0,0,0,0,0
1570468259687.5,-58,29,22,0,0,0,0,0
1570468259718.75,-55,17,29,0,0,0,0,0
1570468259750,-44,22,34,0,0,0,0,0
1570468259781.25,-50,22,31,0,0,0,0,0
1570468259812.5,-51,27,20,0,0,0,0,0
1570468259843.75,-37,23,32,0,0,0,0,0
1570468259875,-83,20,15,0,0,0,0,0
1570468259906.25,-71,29,12,0,0,0,0,0
1570468259937.5,-48,30,5,0,0,0,0,0
1570468259968.75,-31,29,-1,0,0,0,0,0
1570468260000,-64,27,-15,0,0,0,0,0
1570468260031.25,-64,27,-7,0,0,0,0,0
1570468260062.5,-59,26,-7,0,0,0,0,0
1570468260093.75,-52,25,-3,0,0,0,0,0
1570468260125,-37,30,-8,0,0,0,0,0
1570468260156.25,-98,-2,29,0,0,0,0,0
1570468260187.5,-39,10,18,0,0,0,0,0
1570468260218.75,-67,21,2,0,0,0,0,0
1570468260250,-59,23,6,0,0,0,0,0
1570468260281.25,-64,26,6,0,0,0,0,0
1570468260312.5,-60,23,11,0,0,0,0,0
1570468260343.75,-63,19,7,0,0,0,0,0
1570468260375,-64,18,8,0,0,0,0,0
1570468260406.25,-65,18,11,0,0,0,0,0
1570468260437.5,-59,18,9,0,0,0,0,0
1570468260468.75,-56,11,8,0,0,0,0,0
1570468260500,-56,8,8,0,0,0,0,0
1570468260531.25,-61,12,9,0,0,0,0,0
1570468260562.5,-63,16,13,0,0,0,0,0
1570468260593.75,-64,18,14,0,0,0,0,0
1570468260625,-62,17,12,0,0,0,0,0
1570468260656.25,-61,19,9,0,0,0,0,0
1570468260687.5,-58,19,9,0,0,0,0,0
1570468260718.75,-57,19,10,0,0,0,0,0
1570468260750,-60,17,10,0,0,0,0,0
1570468260781.25,-63,15,9,0,0,0,0,0
1570468260812.5,-67,15,5,0,0,0,0,0
1570468260843.75,-67,15,6,0,0,0,0,0
1570468260875,-59,16,8,0,0,0,0,0
1570468260906.25,-63,16,8,0,0,0,0,0
1570468260937.5,-53,21,14,0,0,0,0,0
1570468260968.75,-55,20,14,0,0,0,0,0
1570468261000,-59,16,13,0,0,0,0,0
1570468261031.25,-62,14,9,0,0,0,0,0
1570468261062.5,-63,13,8,0,0,0,0,0
1570468261093.75,-65,15,8,0,0,0,0,0
1570468261125,-65,18,10,0,0,0,0,0
1570468261156.25,-53,21,12,0,0,0,0,0
1570468261187.5,-54,18,13,0,0,0,0,0
1570468261218.75,-62,17,12,0,0,0,0,0
1570468261250,-62,17,12,0,0,0,0,0
1570468261281.25,-60,18,11,0,0,0,0,0
1570468261312.5,-59,17,12,0,0,0,0,0
1570468261343.75,-59,16,13,0,0,0,0,0
1570468261375,-61,16,11,0,0,0,0,0
1570468261406.25,-60,16,12,0,0,0,0,0
1570468261437.5,-61,17,12,0,0,0,0,0
1570468261468.75,-61,17,12,0,0,0,0,0
1570468261500,-59,18,12,0,0,0,0,0
1570468261531.25,-60,16,13,0,0,0,0,0
1570468261562.5,-60,16,12,0,0,0,0,0
1570468261593.75,-62,17,10,0,0,0,0,0
1570468261625,-64,15,11,0,0,0,0,0
1570468261656.25,-62,15,13,0,0,0,0,0
1570468261687.5,-58,16,15,0,0,0,0,0
1570468261718.75,-56,17,16,0,0,0,0,0
1570468261750,-58,19,13,0,0,0,0,0
1570468261781.25,-57,17,15,0,0,0,0,0
1570468261812.5,-58,17,15,0,0,0,0,0
1570468261843.75,-62,16,13,0,0,0,0,0
1570468261875,-62,16,13,0,0,0,0,0
1570468261906.25,-62,17,12,0,0,0,0,0
1570468261937.5,-61,17,12,0,0,0,0,0
1570468261968.75,-59,17,14,0,0,0,0,0
1570468262000,-58,17,14,0,0,0,0,0
1570468262031.25,-59,18,14,0,0,0,0,0
1570468262062.5,-59,19,15,0,0,0,0,0
1570468262093.75,-60,17,15,0,0,0,0,0
1570468262125,-61,17,14,0,0,0,0,0
1570468262156.25,-59,17,14,0,0,0,0,0
1570468262187.5,-57,18,15,0,0,0,0,0
1570468262218.75,-58,16,16,0,0,0,0,0
1570468262250,-59,16,16,0,0,0,0,0
1570468262281.25,-59,17,15,0,0,0,0,0
1570468262312.5,-60,17,15,0,0,0,0,0
1570468262343.75,-60,17,15,0,0,0,0,0
1570468262375,-59,18,15,0,0,0,0,0
1570468262406.25,-60,18,14,0,0,0,0,0
1570468262437.5,-60,17,14,0,0,0,0,0
1570468262468.75,-58,17,14,0,0,0,0,0
1570468262500,-59,16,14,0,0,0,0,0
1570468262531.25,-59,16,14,0,0,0,0,0
1570468262562.5,-62,18,15,0,0,0,0,0
1570468262593.75,-59,19,14,0,0,0,0,0
1570468262625,-57,19,16,0,0,0,0,0
1570468262656.25,-55,17,16,0,0,0,0,0
1570468262687.5,-56,17,15,0,0,0,0,0
1570468262718.75,-59,19,15,0,0,0,0,0
1570468262750,-58,18,15,0,0,0,0,0
1570468262781.25,-60,18,14,0,0,0,0,0
1570468262812.5,-59,19,14,0,0,0,0,0
1570468262843.75,-61,20,13,0,0,0,0,0
1570468262875,-60,18,13,0,0,0,0,0
1570468262906.25,-56,18,14,0,0,0,0,0
1570468262937.5,-58,21,13,0,0,0,0,0
1570468262968.75,-58,22,11,0,0,0,0,0
1570468263000,-62,16,10,0,0,0,0,0
1570468263031.25,-64,16,9,0,0,0,0,0
1570468263062.5,-65,17,6,0,0,0,0,0
1570468263093.75,-64,18,6,0,0,0,0,0
1570468263125,-60,19,8,0,0,0,0,0
1570468263156.25,-58,20,10,0,0,0,0,0
1570468263187.5,-58,19,12,0,0,0,0,0
1570468263218.75,-60,19,12,0,0,0,0,0
1570468263250,-60,17,8,0,0,0,0,0
1570468263281.25,-61,15,7,0,0,0,0,0
1570468263312.5,-61,16,8,0,0,0,0,0
1570468263343.75,-60,17,9,0,0,0,0,0
1570468263375,-60,18,9,0,0,0,0,0
1570468263406.25,-60,18,9,0,0,0,0,0
1570468263437.5,-60,18,9,0,0,0,0,0
1570468263468.75,-62,18,8,0,0,0,0,0
1570468263500,-62,18,9,0,0,0,0,0
1570468263531.25,-61,18,8,0,0,0,0,0
1570468263562.5,-61,18,10,0,0,0,0,0
1570468263593.75,-61,17,10,0,0,0,0,0
1570468263625,-59,18,11,0,0,0,0,0
1570468263656.25,-58,17,12,0,0,0,0,0
1570468263687.5,-60,16,11,0,0,0,0,0
1570468263718.75,-61,15,11,0,0,0,0,0
1570468263750,-61,16,12,0,0,0,0,0
1570468263781.25,-61,17,11,0,0,0,0,0
1570468263812.5,-62,18,11,0,0,0,0,0
1570468263843.75,-53,23,2,0,0,0,0,0
1570468263875,-55,21,13,0,0,0,0,0
1570468263906.25,-61,18,12,0,0,0,0,0
1570468263937.5,-60,18,12,0,0,0,0,0
1570468263968.75,-58,16,14,0,0,0,0,0
1570468264000,-61,12,12,0,0,0,0,0
1570468264031.25,-65,10,11,0,0,0,0,0
1570468264062.5,-69,11,13,0,0,0,0,0
1570468264093.75,-69,15,16,0,0,0,0,0
1570468264125,-63,21,18,0,0,0,0,0
1570468264156.25,-55,24,18,0,0,0,0,0
1570468264187.5,-48,26,19,0,0,0,0,0
1570468264218.75,-38,28,29,0,0,0,0,0
1570468264250,-38,28,30,0,0,0,0,0
1570468264281.25,-36,15,33,0,0,0,0,0
1570468264312.5,-43,10,29,0,0,0,0,0
1570468264343.75,-59,8,20,0,0,0,0,0
1570468264375,-60,11,18,0,0,0,0,0
1570468264406.25,-65,17,6,0,0,0,0,0
1570468264437.5,-69,18,0,0,0,0,0,0
1570468264468.75,-69,20,0,0,0,0,0,0
1570468264500,-71,20,-1,0,0,0,0,0
1570468264531.25,-66,19,-1,0,0,0,0,0
1570468264562.5,-54,21,4,0,0,0,0,0
1570468264593.75,-69,14,-6,0,0,0,0,0
1570468264625,-72,18,-6,0,0,0,0,0
1570468264656.25,-72,17,-5,0,0,0,0,0
1570468264687.5,-67,16,-5,0,0,0,0,0
1570468264718.75,-66,17,-1,0,0,0,0,0
1570468264750,-65,12,4,0,0,0,0,0
1570468264781.25,-64,10,7,0,0,0,0,0
1570468264812.5,-60,17,12,0,0,0,0,0
1570468264843.75,-59,20,15,0,0,0,0,0
1570468264875,-47,24,23,0,0,0,0,0
1570468264906.25,-51,19,18,0,0,0,0,0
1570468264937.5,-56,11,11,0,0,0,0,0
1570468264968.75,-67,20,9,0,0,0,0,0
1570468265000,-61,18,15,0,0,0,0,0
1570468265031.25,-60,25,16,0,0,0,0,0
1570468265062.5,-59,25,16,0,0,0,0,0
1570468265093.75,-53,27,16,0,0,0,0,0
1570468265125,-52,26,17,0,0,0,0,0
1570468265156.25,-59,21,12,0,0,0,0,0
1570468265187.5,-61,19,14,0,0,0,0,0
1570468265218.75,-61,21,18,0,0,0,0,0
1570468265250,-64,19,18,0,0,0,0,0
1570468265281.25,-64,16,19,0,0,0,0,0
1570468265312.5,-54,18,21,0,0,0,0,0
1570468265343.75,-51,17,27,0,0,0,0,0
1570468265375,-58,16,21,0,0,0,0,0
1570468265406.25,-54,19,20,0,0,0,0,0
1570468265437.5,-53,23,23,0,0,0,0,0
1570468265468.75,-55,22,22,0,0,0,0,0
1570468265500,-57,21,23,0,0,0,0,0
1570468265531.25,-56,19,23,0,0,0,0,0
1570468265562.5,-54,17,24,0,0,0,0,0
1570468265593.75,-57,16,23,0,0,0,0,0
1570468265625,-65,14,26,0,0,0,0,0
1570468265656.25,-53,17,24,0,0,0,0,0
1570468265687.5,-51,20,20,0,0,0,0,0
1570468265718.75,-58,19,19,0,0,0,0,0
1570468265750,-62,17,21,0,0,0,0,0
1570468265781.25,-64,20,19,0,0,0,0,0
1570468265812.5,-62,20,19,0,0,0,0,0
1570468265843.75,-57,18,24,0,0,0,0,0
1570468265875,-52,20,21,0,0,0,0,0
1570468265906.25,-54,16,21,0,0,0,0,0
1570468265937.5,-54,14,22,0,0,0,0,0
1570468265968.75,-54,15,21,0,0,0,0,0
1570468266000,-59,18,17,0,0,0,0,0
1570468266031.25,-64,16,17,0,0,0,0,0
1570468266062.5,-59,16,19,0,0,0,0,0
1570468266093.75,-55,19,15,0,0,0,0,0
1570468266125,-62,19,13,0,0,0,0,0
1570468266156.25,-64,19,11,0,0,0,0,0
1570468266187.5,-65,20,10,0,0,0,0,0
1570468266218.75,-61,19,10,0,0,0,0,0
1570468266250,-59,17,11,0,0,0,0,0
1570468266281.25,-58,15,11,0,0,0,0,0
1570468266312.5,-56,18,14,0,0,0,0,0
1570468266343.75,-59,18,14,0,0,0,0,0
1570468266375,-63,17,11,0,0,0,0,0
1570468266406.25,-62,19,12,0,0,0,0,0
1570468266437.5,-64,21,9,0,0,0,0,0
1570468266468.75,-66,20,8,0,0,0,0,0
1570468266500,-68,19,10,0,0,0,0,0
1570468266531.25,-62,19,9,0,0,0,0,0
1570468266562.5,-59,16,11,0,0,0,0,0
1570468266593.75,-57,15,13,0,0,0,0,0
1570468266625,-46,19,16,0,0,0,0,0
1570468266656.25,-51,23,12,0,0,0,0,0
1570468266687.5,-56,20,12,0,0,0,0,0
1570468266718.75,-64,23,11,0,0,0,0,0
1570468266750,-64,24,14,0,0,0,0,0
1570468266781.25,-59,24,15,0,0,0,0,0
1570468266812.5,-62,21,14,0,0,0,0,0
1570468266843.75,-54,22,13,0,0,0,0,0
1570468266875,-56,22,10,0,0,0,0,0
1570468266906.25,-56,19,13,0,0,0,0,0
1570468266937.5,-57,18,14,0,0,0,0,0
1570468266968.75,-59,20,16,0,0,0,0,0
1570468267000,-60,21,17,0,0,0,0,0
1570468267031.25,-60,22,16,0,0,0,0,0
1570468267062.5,-58,20,13,0,0,0,0,0
1570468267093.75,-58,21,13,0,0,0,0,0
1570468267125,-60,21,15,0,0,0,0,0
1570468267156.25,-65,21,15,0,0,0,0,0
1570468267187.5,-70,22,19,0,0,0,0,0
1570468267218.75,-72,21,19,0,0,0,0,0
1570468267250,-63,18,23,0,0,0,0,0
1570468267281.25,-55,22,26,0,0,0,0,0
1570468267312.5,-41,25,28,0,0,0,0,0
1570468267343.75,-43,26,25,0,0,0,0,0
1570468267375,-31,29,25,0,0,0,0,0
1570468267406.25,-32,30,26,0,0,0,0,0
1570468267437.5,-39,35,24,0,0,0,0,0
1570468267468.75,-41,37,29,0,0,0,0,0
1570468267500,-49,42,31,0,0,0,0,0
1570468267531.25,-42,37,32,0,0,0,0,0
1570468267562.5,-44,33,30,0,0,0,0,0
1570468267593.75,-54,26,26,0,0,0,0,0
1570468267625,-53,26,26,0,0,0,0,0
1570468267656.25,-52,29,28,0,0,0,0,0
1570468267687.5,-55,28,28,0,0,0,0,0
1570468267718.75,-48,25,26,0,0,0,0,0
1570468267750,-55,23,26,0,0,0,0,0
1570468267781.25,-60,27,23,0,0,0,0,0
1570468267812.5,-57,27,23,0,0,0,0,0
1570468267843.75,-54,26,26,0,0,0,0,0
1570468267875,-51,24,26,0,0,0,0,0
1570468267906.25,-51,24,25,0,0,0,0,0
1570468267937.5,-53,27,23,0,0,0,0,0
1570468267968.75,-54,27,24,0,0,0,0,0
1570468268000,-57,26,26,0,0,0,0,0
1570468268031.25,-56,25,26,0,0,0,0,0
1570468268062.5,-49,24,28,0,0,0,0,0
1570468268093.75,-48,24,29,0,0,0,0,0
1570468268125,-49,23,28,0,0,0,0,0
1570468268156.25,-49,23,28,0,0,0,0,0
1570468268187.5,-56,26,27,0,0,0,0,0
1570468268218.75,-50,27,28,0,0,0,0,0
1570468268250,-53,27,28,0,0,0,0,0
1570468268281.25,-55,26,27,0,0,0,0,0
1570468268312.5,-52,27,28,0,0,0,0,0
1570468268343.75,-49,26,29,0,0,0,0,0
1570468268375,-45,26,30,0,0,0,0,0
1570468268406.25,-49,25,29,0,0,0,0,0
1570468268437.5,-48,25,30,0,0,0,0,0
1570468268468.75,-50,27,30,0,0,0,0,0
1570468268500,-51,26,30,0,0,0,0,0
1570468268531.25,-52,26,29,0,0,0,0,0
1570468268562.5,-51,26,31,0,0,0,0,0
1570468268593.75,-59,26,30,0,0,0,0,0
1570468268625,-54,28,29,0,0,0,0,0
1570468268656.25,-54,24,26,0,0,0,0,0
1570468268687.5,-54,25,31,0,0,0,0,0
1570468268718.75,-53,29,31,0,0,0,0,0
1570468268750,-49,26,30,0,0,0,0,0
1570468268781.25,-51,24,28,0,0,0,0,0
1570468268812.5,-42,26,33,0,0,0,0,0
1570468268843.75,-45,23,25,0,0,0,0,0
1570468268875,-57,24,15,0,0,0,0,0
1570468268906.25,-62,23,20,0,0,0,0,0
1570468268937.5,-63,25,21,0,0,0,0,0
1570468268968.75,-62,28,21,0,0,0,0,0
1570468269000,-58,29,22,0,0,0,0,0
1570468269031.25,-53,30,22,0,0,0,0,0
1570468269062.5,-52,28,22,0,0,0,0,0
1570468269093.75,-47,28,22,0,0,0,0,0
1570468269125,-46,27,18,0,0,0,0,0
1570468269156.25,-44,31,16,0,0,0,0,0
1570468269187.5,-42,35,10,0,0,0,0,0
1570468269218.75,-57,32,24,0,0,0,0,0
1570468269250,-43,32,24,0,0,0,0,0
1570468269281.25,-48,39,13,0,0,0,0,0
1570468269312.5,-53,31,9,0,0,0,0,0
1570468269343.75,-60,31,0,0,0,0,0,0
1570468269375,-64,31,5,0,0,0,0,0
1570468269406.25,-61,35,3,0,0,0,0,0
1570468269437.5,-41,35,18,0,0,0,0,0
1570468269468.75,-40,26,36,0,0,0,0,0
1570468269500,-43,28,35,0,0,0,0,0
1570468269531.25,-53,14,29,0,0,0,0,0
1570468269562.5,-64,11,13,0,0,0,0,0
1570468269593.75,-69,20,10,0,0,0,0,0
1570468269625,-51,35,14,0,0,0,0,0
1570468269656.25,-54,39,16,0,0,0,0,0
1570468269687.5,-63,33,7,0,0,0,0,0
1570468269718.75,-44,21,13,0,0,0,0,0
1570468269750,-47,17,22,0,0,0,0,0
1570468269781.25,-51,16,24,0,0,0,0,0
1570468269812.5,-64,19,22,0,0,0,0,0
1570468269843.75,-64,16,21,0,0,0,0,0
1570468269875,-63,16,23,0,0,0,0,0
1570468269906.25,-72,15,26,0,0,0,0,0
1570468269937.5,-67,15,23,0,0,0,0,0
1570468269968.75,-46,18,23,0,0,0,0,0
1570468270000,-56,16,11,0,0,0,0,0
1570468270031.25,-66,20,6,0,0,0,0,0
1570468270062.5,-68,22,10,0,0,0,0,0
1570468270093.75,-64,25,14,0,0,0,0,0
1570468270125,-69,20,18,0,0,0,0,0
1570468270156.25,-62,30,18,0,0,0,0,0
1570468270187.5,-61,26,16,0,0,0,0,0
1570468270218.75,-51,21,13,0,0,0,0,0
1570468270250,-39,20,25,0,0,0,0,0
1570468270281.25,-30,30,12,0,0,0,0,0
1570468270312.5,-22,20,32,0,0,0,0,0
1570468270343.75,-49,15,23,0,0,0,0,0
1570468270375,-74,22,9,0,0,0,0,0
1570468270406.25,-67,17,17,0,0,0,0,0
1570468270437.5,-65,13,13,0,0,0,0,0
1570468270468.75,-65,18,13,0,0,0,0,0
1570468270500,-58,21,2,0,0,0,0,0
1570468270531.25,-72,15,-2,0,0,0,0,0
1570468270562.5,-63,17,5,0,0,0,0,0
1570468270593.75,-69,17,5,0,0,0,0,0
1570468270625,-67,16,3,0,0,0,0,0
1570468270656.25,-64,19,3,0,0,0,0,0
1570468270687.5,-60,18,4,0,0,0,0,0
1570468270718.75,-63,16,5,0,0,0,0,0
1570468270750,-64,16,6,0,0,0,0,0
1570468270781.25,-59,17,8,0,0,0,0,0
1570468270812.5,-58,18,8,0,0,0,0,0
1570468270843.75,-58,19,7,0,0,0,0,0
1570468270875,-59,20,7,0,0,0,0,0
1570468270906.25,-60,20,6,0,0,0,0,0
1570468270937.5,-60,18,5,0,0,0,0,0
1570468270968.75,-58,18,8,0,0,0,0,0
1570468271000,-54,22,6,0,0,0,0,0
1570468271031.25,-55,20,6,0,0,0,0,0
1570468271062.5,-61,17,5,0,0,0,0,0
1570468271093.75,-57,15,5,0,0,0,0,0
1570468271125,-69,20,1,0,0,0,0,0
1570468271156.25,-68,22,-2,0,0,0,0,0
1570468271187.5,-65,20,0,0,0,0,0,0
1570468271218.75,-62,17,1,0,0,0,0,0
1570468271250,-62,18,1,0,0,0,0,0
1570468271281.25,-63,16,1,0,0,0,0,0
1570468271312.5,-59,18,1,0,0,0,0,0
1570468271343.75,-58,16,3,0,0,0,0,0
1570468271375,-66,22,-3,0,0,0,0,0
1570468271406.25,-59,18,0,0,0,0,0,0
1570468271437.5,-63,19,6,0,0,0,0,0
1570468271468.75,-59,19,8,0,0,0,0,0
1570468271500,-60,17,8,0,0,0,0,0
1570468271531.25,-59,14,9,0,0,0,0,0
1570468271562.5,-57,18,4,0,0,0,0,0
1570468271593.75,-59,20,-5,0,0,0,0,0
1570468271625,-60,22,-8,0,0,0,0,0
1570468271656.25,-57,23,-6,0,0,0,0,0
1570468271687.5,-56,23,-5,0,0,0,0,0
1570468271718.75,-63,20,-7,0,0,0,0,0
1570468271750,-63,18,-7,0,0,0,0,0
1570468271781.25,-64,17,-5,0,0,0,0,0
1570468271812.5,-64,18,-3,0,0,0,0,0
1570468271843.75,-61,22,-4,0,0,0,0,0
1570468271875,-59,18,-7,0,0,0,0,0
1570468271906.25,-60,19,-13,0,0,0,0,0
1570468271937.5,-59,20,-5,0,0,0,0,0
1570468271968.75,-58,21,-3,0,0,0,0,0
1570468272000,-62,14,6,0,0,0,0,0
1570468272031.25,-66,18,-3,0,0,0,0,0
1570468272062.5,-66,21,-6,0,0,0,0,0
1570468272093.75,-66,22,-8,0,0,0,0,0
1570468272125,-60,21,-5,0,0,0,0,0
1570468272156.25,-60,22,-7,0,0,0,0,0
1570468272187.5,-58,21,-6,0,0,0,0,0
1570468272218.75,-61,18,-6,0,0,0,0,0
1570468272250,-63,19,-2,0,0,0,0,0
1570468272281.25,-62,17,-3,0,0,0,0,0
1570468272312.5,-63,20,-3,0,0,0,0,0
1570468272343.75,-61,24,-5,0,0,0,0,0
1570468272375,-61,25,-9,0,0,0,0,0
1570468272406.25,-68,23,2,0,0,0,0,0
1570468272437.5,-68,29,0,0,0,0,0,0
1570468272468.75,-60,30,2,0,0,0,0,0
1570468272500,-57,32,1,0,0,0,0,0
1570468272531.25,-65,31,-3,0,0,0,0,0
1570468272562.5,-62,31,-4,0,0,0,0,0
1570468272593.75,-57,31,1,0,0,0,0,0
1570468272625,-52,29,5,0,0,0,0,0
1570468272656.25,-48,29,3,0,0,0,0,0
1570468272687.5,-49,33,4,0,0,0,0,0
1570468272718.75,-59,47,5,0,0,0,0,0
1570468272750,-61,40,-3,0,0,0,0,0
1570468272781.25,-55,38,-6,0,0,0,0,0
1570468272812.5,-38,30,18,0,0,0,0,0
1570468272843.75,-32,27,21,0,0,0,0,0
1570468272875,-42,37,14,0,0,0,0,0
1570468272906.25,-47,34,17,0,0,0,0,0
1570468272937.5,-49,47,11,0,0,0,0,0
1570468272968.75,-50,45,16,0,0,0,0,0
1570468273000,-44,47,15,0,0,0,0,0
1570468273031.25,-45,47,9,0,0,0,0,0
1570468273062.5,-33,44,15,0,0,0,0,0
1570468273093.75,-35,43,12,0,0,0,0,0
1570468273125,-45,45,10,0,0,0,0,0
1570468273156.25,-39,43,8,0,0,0,0,0
1570468273187.5,-36,40,5,0,0,0,0,0
1570468273218.75,-30,52,0,0,0,0,0,0
1570468273250,-31,46,1,0,0,0,0,0
1570468273281.25,-34,49,5,0,0,0,0,0
1570468273312.5,-37,43,10,0,0,0,0,0
1570468273343.75,-44,36,16,0,0,0,0,0
1570468273375,-50,33,19,0,0,0,0,0
1570468273406.25,-56,23,27,0,0,0,0,0
1570468273437.5,-59,28,22,0,0,0,0,0
1570468273468.75,-63,27,3,0,0,0,0,0
1570468273500,-75,32,-2,0,0,0,0,0
1570468273531.25,-77,30,2,0,0,0,0,0
1570468273562.5,-53,22,13,0,0,0,0,0
1570468273593.75,-56,32,17,0,0,0,0,0
1570468273625,-68,44,23,0,0,0,0,0
1570468273656.25,-58,45,25,0,0,0,0,0
1570468273687.5,-46,57,22,0,0,0,0,0
1570468273718.75,-40,58,17,0,0,0,0,0
1570468273750,-28,58,16,0,0,0,0,0
1570468273781.25,-28,55,18,0,0,0,0,0
1570468273812.5,-32,54,23,0,0,0,0,0
1570468273843.75,-32,55,25,0,0,0,0,0
1570468273875,-33,58,31,0,0,0,0,0
1570468273906.25,-18,47,62,0,0,0,0,0
1570468273937.5,27,40,95,0,0,0,0,0
1570468273968.75,-39,54,46,0,0,0,0,0
1570468274000,-15,51,35,0,0,0,0,0
1570468274031.25,-17,39,21,0,0,0,0,0
1570468274062.5,-22,34,17,0,0,0,0,0
1570468274093.75,2,26,13,0,0,0,0,0
1570468274125,11,24,5,0,0,0,0,0
1570468274156.25,-1,11,0,0,0,0,0,0
1570468274187.5,-9,11,2,0,0,0,0,0
1570468274218.75,-35,13,11,0,0,0,0,0
1570468274250,-46,20,24,0,0,0,0,0
1570468274281.25,-80,11,57,0,0,0,0,0
1570468274312.5,-80,18,85,0,0,0,0,0
1570468274343.75,-68,22,91,0,0,0,0,0
1570468274375,-56,22,88,0,0,0,0,0
1570468274406.25,-53,22,79,0,0,0,0,0
1570468274437.5,-45,20,60,0,0,0,0,0
1570468274468.75,-44,19,53,0,0,0,0,0
1570468274500,-41,18,46,0,0,0,0,0
1570468274531.25,-39,19,47,0,0,0,0,0
1570468274562.5,-41,20,52,0,0,0,0,0
1570468274593.75,-39,22,54,0,0,0,0,0
1570468274625,-35,26,54,0,0,0,0,0
1570468274656.25,-32,27,55,0,0,0,0,0
1570468274687.5,-27,31,51,0,0,0,0,0
1570468274718.75,-36,34,40,0,0,0,0,0
1570468274750,-39,36,35,0,0,0,0,0
1570468274781.25,-39,44,27,0,0,0,0,0
1570468274812.5,-43,49,23,0,0,0,0,0
1570468274843.75,-41,50,22,0,0,0,0,0
1570468274875,-34,52,23,0,0,0,0,0
1570468274906.25,-23,48,32,0,0,0,0,0
1570468274937.5,-16,45,35,0,0,0,0,0
1570468274968.75,-2,45,35,0,0,0,0,0
1570468275000,10,41,35,0,0,0,0,0
1570468275031.25,14,41,36,0,0,0,0,0
1570468275062.5,18,43,37,0,0,0,0,0
1570468275093.75,23,45,38,0,0,0,0,0
1570468275125,27,43,36,0,0,0,0,0
1570468275156.25,28,40,35,0,0,0,0,0
1570468275187.5,31,37,31,0,0,0,0,0
1570468275218.75,33,36,27,0,0,0,0,0
1570468275250,40,44,23,0,0,0,0,0
1570468275281.25,43,49,21,0,0,0,0,0
1570468275312.5,51,52,14,0,0,0,0,0
1570468275343.75,57,47,13,0,0,0,0,0
1570468275375,55,35,15,0,0,0,0,0
1570468275406.25,37,30,17,0,0,0,0,0
1570468275437.5,41,25,23,0,0,0,0,0
1570468275468.75,47,26,21,0,0,0,0,0
1570468275500,46,32,37,0,0,0,0,0
1570468275531.25,40,31,24,0,0,0,0,0
1570468275562.5,50,34,19,0,0,0,0,0
1570468275593.75,58,36,15,0,0,0,0,0
1570468275625,51,35,13,0,0,0,0,0
1570468275656.25,59,35,10,0,0,0,0,0
1570468275687.5,55,33,8,0,0,0,0,0
1570468275718.75,46,35,10,0,0,0,0,0
1570468275750,38,32,12,0,0,0,0,0
1570468275781.25,65,34,10,0,0,0,0,0
1570468275812.5,75,33,4,0,0,0,0,0
1570468275843.75,55,22,-2,0,0,0,0,0
1570468275875,50,19,-8,0,0,0,0,0
1570468275906.25,57,26,-14,0,0,0,0,0
1570468275937.5,56,19,0,0,0,0,0,0
1570468275968.75,55,23,-8,0,0,0,0,0
1570468276000,50,28,-15,0,0,0,0,0
1570468276031.25,49,36,-13,0,0,0,0,0
1570468276062.5,50,31,-17,0,0,0,0,0
1570468276093.75,48,33,-19,0,0,0,0,0
1570468276125,49,34,-21,0,0,0,0,0
1570468276156.25,44,32,-22,0,0,0,0,0
1570468276187.5,42,37,-25,0,0,0,0,0
1570468276218.75,39,38,-26,0,0,0,0,0
1570468276250,43,35,-24,0,0,0,0,0
1570468276281.25,36,35,-26,0,0,0,0,0
1570468276312.5,39,39,-32,0,0,0,0,0
1570468276343.75,39,41,-29,0,0,0,0,0
1570468276375,38,41,-30,0,0,0,0,0
1570468276406.25,40,43,-28,0,0,0,0,0
1570468276437.5,36,45,-30,0,0,0,0,0
1570468276468.75,37,45,-27,0,0,0,0,0
1570468276500,41,40,-23,0,0,0,0,0
1570468276531.25,45,39,-25,0,0,0,0,0
1570468276562.5,42,40,-24,0,0,0,0,0
1570468276593.75,45,40,-22,0,0,0,0,0
1570468276625,45,39,-21,0,0,0,0,0
1570468276656.25,49,43,-22,0,0,0,0,0
1570468276687.5,45,42,-23,0,0,0,0,0
1570468276718.75,40,39,-20,0,0,0,0,0
1570468276750,37,42,-18,0,0,0,0,0
1570468276781.25,35,43,-19,0,0,0,0,0
1570468276812.5,38,45,-21,0,0,0,0,0
1570468276843.75,41,45,-23,0,0,0,0,0
1570468276875,43,44,-25,0,0,0,0,0
1570468276906.25,44,44,-21,0,0,0,0,0
1570468276937.5,41,44,-18,0,0,0,0,0
1570468276968.75,41,45,-17,0,0,0,0,0
1570468277000,39,45,-18,0,0,0,0,0
1570468277031.25,37,45,-20,0,0,0,0,0
1570468277062.5,39,42,-19,0,0,0,0,0
1570468277093.75,40,43,-19,0,0,0,0,0
1570468277125,40,41,-20,0,0,0,0,0
1570468277156.25,34,43,-24,0,0,0,0,0
1570468277187.5,42,41,-19,0,0,0,0,0
1570468277218.75,43,41,-21,0,0,0,0,0
1570468277250,41,42,-26,0,0,0,0,0
1570468277281.25,41,40,-23,0,0,0,0,0
1570468277312.5,44,39,-19,0,0,0,0,0
1570468277343.75,38,39,-17,0,0,0,0,0
1570468277375,37,43,-17,0,0,0,0,0
1570468277406.25,39,49,-18,0,0,0,0,0
1570468277437.5,37,53,-20,0,0,0,0,0
1570468277468.75,33,55,-20,0,0,0,0,0
1570468277500,33,55,-18,0,0,0,0,0
1570468277531.25,34,50,-16,0,0,0,0,0
1570468277562.5,40,44,-19,0,0,0,0,0
1570468277593.75,41,43,-23,0,0,0,0,0
1570468277625,42,43,-25,0,0,0,0,0
1570468277656.25,38,36,-28,0,0,0,0,0
1570468277687.5,37,36,-25,0,0,0,0,0
1570468277718.75,38,38,-22,0,0,0,0,0
1570468277750,42,47,-24,0,0,0,0,0
1570468277781.25,42,49,-24,0,0,0,0,0
1570468277812.5,41,49,-23,0,0,0,0,0
1570468277843.75,36,48,-21,0,0,0,0,0
1570468277875,38,48,-17,0,0,0,0,0
1570468277906.25,40,46,-18,0,0,0,0,0
1570468277937.5,36,44,-17,0,0,0,0,0
1570468277968.75,39,41,-13,0,0,0,0,0
1570468278000,40,41,-14,0,0,0,0,0
1570468278031.25,40,43,-17,0,0,0,0,0
1570468278062.5,38,44,-20,0,0,0,0,0
1570468278093.75,41,44,-21,0,0,0,0,0
1570468278125,42,45,-21,0,0,0,0,0
1570468278156.25,42,46,-17,0,0,0,0,0
1570468278187.5,42,46,-15,0,0,0,0,0
1570468278218.75,40,48,-15,0,0,0,0,0
1570468278250,35,46,-17,0,0,0,0,0
1570468278281.25,35,46,-18,0,0,0,0,0
1570468278312.5,37,45,-16,0,0,0,0,0
1570468278343.75,37,48,-16,0,0,0,0,0
1570468278375,39,59,-8,0,0,0,0,0
1570468278406.25,39,59,-24,0,0,0,0,0
1570468278437.5,30,60,-44,0,0,0,0,0
1570468278468.75,12,57,-50,0,0,0,0,0
1570468278500,28,57,-20,0,0,0,0,0
1570468278531.25,30,55,-15,0,0,0,0,0
1570468278562.5,19,51,-13,0,0,0,0,0
1570468278593.75,5,49,-16,0,0,0,0,0
1570468278625,3,45,-18,0,0,0,0,0
1570468278656.25,11,51,-18,0,0,0,0,0
1570468278687.5,29,58,-12,0,0,0,0,0
1570468278718.75,28,57,-13,0,0,0,0,0
1570468278750,29,56,-9,0,0,0,0,0
1570468278781.25,37,47,-12,0,0,0,0,0
1570468278812.5,38,43,-14,0,0,0,0,0
1570468278843.75,32,34,-19,0,0,0,0,0
1570468278875,31,36,-23,0,0,0,0,0
1570468278906.25,36,48,-28,0,0,0,0,0
1570468278937.5,34,47,-32,0,0,0,0,0
1570468278968.75,42,44,-31,0,0,0,0,0
1570468279000,42,42,-35,0,0,0,0,0
1570468279031.25,38,41,-36,0,0,0,0,0
1570468279062.5,35,40,-37,0,0,0,0,0
1570468279093.75,32,43,-41,0,0,0,0,0
1570468279125,31,45,-40,0,0,0,0,0
1570468279156.25,33,48,-39,0,0,0,0,0
1570468279187.5,37,51,-38,0,0,0,0,0
1570468279218.75,47,56,-37,0,0,0,0,0
1570468279250,49,52,-33,0,0,0,0,0
1570468279281.25,48,48,-30,0,0,0,0,0
1570468279312.5,26,40,-27,0,0,0,0,0
1570468279343.75,22,39,-28,0,0,0,0,0
1570468279375,20,40,-26,0,0,0,0,0
1570468279406.25,24,42,-23,0,0,0,0,0
1570468279437.5,38,48,-20,0,0,0,0,0
1570468279468.75,43,49,-18,0,0,0,0,0
1570468279500,49,53,-15,0,0,0,0,0
1570468279531.25,45,53,-14,0,0,0,0,0
1570468279562.5,34,49,-14,0,0,0,0,0
1570468279593.75,24,50,-11,0,0,0,0,0
1570468279625,22,49,-9,0,0,0,0,0
1570468279656.25,24,49,-5,0,0,0,0,0
1570468279687.5,27,49,-2,0,0,0,0,0
1570468279718.75,30,48,2,0,0,0,0,0
1570468279750,31,49,4,0,0,0,0,0
1570468279781.25,31,47,6,0,0,0,0,0
1570468279812.5,30,47,5,0,0,0,0,0
1570468279843.75,34,52,4,0,0,0,0,0
1570468279875,33,52,4,0,0,0,0,0
1570468279906.25,36,52,4,0,0,0,0,0
1570468279937.5,38,54,5,0,0,0,0,0
1570468279968.75,37,49,4,0,0,0,0,0
1570468280000,39,45,6,0,0,0,0,0
1570468280031.25,37,38,9,0,0,0,0,0
1570468280062.5,34,27,17,0,0,0,0,0
1570468280093.75,38,28,20,0,0,0,0,0
1570468280125,42,30,25,0,0,0,0,0
1570468280156.25,39,26,30,0,0,0,0,0
1570468280187.5,50,25,35,0,0,0,0,0
1570468280218.75,56,25,35,0,0,0,0,0
1570468280250,5,13,40,0,0,0,0,0
1570468280281.25,-32,16,51,0,0,0,0,0
1570468280312.5,-29,13,76,0,0,0,0,0
1570468280343.75,-26,29,58,0,0,0,0,0
1570468280375,-19,30,60,0,0,0,0,0
1570468280406.25,-39,39,50,0,0,0,0,0
1570468280437.5,-50,35,37,0,0,0,0,0
1570468280468.75,-75,39,15,0,0,0,0,0
1570468280500,-82,40,9,0,0,0,0,0
1570468280531.25,-76,43,6,0,0,0,0,0
1570468280562.5,-71,40,6,0,0,0,0,0
1570468280593.75,-57,34,16,0,0,0,0,0
1570468280625,-48,30,22,0,0,0,0,0
1570468280656.25,-40,27,28,0,0,0,0,0
1570468280687.5,-40,28,28,0,0,0,0,0
1570468280718.75,-47,30,24,0,0,0,0,0
1570468280750,-52,33,19,0,0,0,0,0
1570468280781.25,-51,34,16,0,0,0,0,0
1570468280812.5,-52,36,14,0,0,0,0,0
1570468280843.75,-54,37,14,0,0,0,0,0
1570468280875,-53,42,15,0,0,0,0,0
1570468280906.25,-51,42,14,0,0,0,0,0
1570468280937.5,-49,40,13,0,0,0,0,0
1570468280968.75,-48,39,13,0,0,0,0,0
1570468281000,-49,37,15,0,0,0,0,0
1570468281031.25,-50,36,15,0,0,0,0,0
1570468281062.5,-49,34,16,0,0,0,0,0
1570468281093.75,-47,34,16,0,0,0,0,0
1570468281125,-52,35,13,0,0,0,0,0
1570468281156.25,-54,37,11,0,0,0,0,0
1570468281187.5,-54,40,8,0,0,0,0,0
1570468281218.75,-50,41,11,0,0,0,0,0
1570468281250,-48,42,11,0,0,0,0,0
1570468281281.25,-48,42,12,0,0,0,0,0
1570468281312.5,-50,42,12,0,0,0,0,0
1570468281343.75,-49,42,8,0,0,0,0,0
1570468281375,-49,41,7,0,0,0,0,0
1570468281406.25,-51,36,11,0,0,0,0,0
1570468281437.5,-52,35,15,0,0,0,0,0
1570468281468.75,-49,37,13,0,0,0,0,0
1570468281500,-48,38,12,0,0,0,0,0
1570468281531.25,-50,38,14,0,0,0,0,0
1570468281562.5,-51,38,14,0,0,0,0,0
1570468281593.75,-51,40,12,0,0,0,0,0
1570468281625,-50,40,12,0,0,0,0,0
1570468281656.25,-49,39,12,0,0,0,0,0
1570468281687.5,-51,37,12,0,0,0,0,0
1570468281718.75,-51,36,13,0,0,0,0,0
1570468281750,-51,37,14,0,0,0,0,0
1570468281781.25,-50,37,14,0,0,0,0,0
1570468281812.5,-50,39,13,0,0,0,0,0
1570468281843.75,-50,39,13,0,0,0,0,0
1570468281875,-49,40,12,0,0,0,0,0
1570468281906.25,-48,39,13,0,0,0,0,0
1570468281937.5,-48,38,13,0,0,0,0,0
1570468281968.75,-48,38,14,0,0,0,0,0
1570468282000,-50,38,15,0,0,0,0,0
1570468282031.25,-53,37,14,0,0,0,0,0
1570468282062.5,-52,37,14,0,0,0,0,0
1570468282093.75,-50,38,16,0,0,0,0,0
1570468282125,-51,38,16,0,0,0,0,0
1570468282156.25,-51,39,13,0,0,0,0,0
1570468282187.5,-51,40,10,0,0,0,0,0
1570468282218.75,-51,38,10,0,0,0,0,0
1570468282250,-51,37,12,0,0,0,0,0
1570468282281.25,-48,35,16,0,0,0,0,0
1570468282312.5,-45,35,18,0,0,0,0,0
1570468282343.75,-41,36,19,0,0,0,0,0
1570468282375,-41,35,20,0,0,0,0,0
1570468282406.25,-43,36,20,0,0,0,0,0
1570468282437.5,-51,41,12,0,0,0,0,0
1570468282468.75,-57,41,8,0,0,0,0,0
1570468282500,-59,41,8,0,0,0,0,0
1570468282531.25,-56,41,10,0,0,0,0,0
1570468282562.5,-48,41,8,0,0,0,0,0
1570468282593.75,-45,42,9,0,0,0,0,0
1570468282625,-49,42,9,0,0,0,0,0
1570468282656.25,-50,42,10,0,0,0,0,0
1570468282687.5,-49,41,13,0,0,0,0,0
1570468282718.75,-46,40,15,0,0,0,0,0
1570468282750,-39,40,17,0,0,0,0,0
1570468282781.25,-40,38,17,0,0,0,0,0
1570468282812.5,-42,37,17,0,0,0,0,0
1570468282843.75,-53,38,12,0,0,0,0,0
1570468282875,-56,39,7,0,0,0,0,0
1570468282906.25,-57,43,5,0,0,0,0,0
1570468282937.5,-55,42,7,0,0,0,0,0
1570468282968.75,-50,38,11,0,0,0,0,0
1570468283000,-49,36,13,0,0,0,0,0
1570468283031.25,-47,35,17,0,0,0,0,0
1570468283062.5,-49,36,15,0,0,0,0,0
1570468283093.75,-53,39,12,0,0,0,0,0
1570468283125,-53,40,11,0,0,0,0,0
1570468283156.25,-49,40,9,0,0,0,0,0
1570468283187.5,-47,39,13,0,0,0,0,0
1570468283218.75,-49,38,14,0,0,0,0,0
1570468283250,-52,37,14,0,0,0,0,0
1570468283281.25,-53,37,12,0,0,0,0,0
1570468283312.5,-52,38,10,0,0,0,0,0
1570468283343.75,-51,38,10,0,0,0,0,0
1570468283375,-50,37,12,0,0,0,0,0
1570468283406.25,-50,37,13,0,0,0,0,0
1570468283437.5,-51,36,13,0,0,0,0,0
1570468283468.75,-51,37,13,0,0,0,0,0
1570468283500,-51,38,13,0,0,0,0,0
1570468283531.25,-51,38,12,0,0,0,0,0
1570468283562.5,-52,37,12,0,0,0,0,0
1570468283593.75,-52,36,13,0,0,0,0,0
1570468283625,-52,35,14,0,0,0,0,0
1570468283656.25,-47,38,12,0,0,0,0,0
1570468283687.5,-45,39,11,0,0,0,0,0
1570468283718.75,-48,38,13,0,0,0,0,0
1570468283750,-47,38,14,0,0,0,0,0
1570468283781.25,-49,40,13,0,0,0,0,0
1570468283812.5,-49,40,13,0,0,0,0,0
1570468283843.75,-48,40,13,0,0,0,0,0
1570468283875,-48,41,12,0,0,0,0,0
1570468283906.25,-49,42,11,0,0,0,0,0
1570468283937.5,-50,46,9,0,0,0,0,0
1570468283968.75,-55,42,12,0,0,0,0,0
1570468284000,-54,39,10,0,0,0,0,0
1570468284031.25,-53,37,11,0,0,0,0,0
1570468284062.5,-46,32,13,0,0,0,0,0
1570468284093.75,-44,31,15,0,0,0,0,0
1570468284125,-44,32,15,0,0,0,0,0
1570468284156.25,-45,34,15,0,0,0,0,0
1570468284187.5,-50,39,16,0,0,0,0,0
1570468284218.75,-52,41,16,0,0,0,0,0
1570468284250,-54,44,13,0,0,0,0,0
1570468284281.25,-53,44,11,0,0,0,0,0
1570468284312.5,-51,39,10,0,0,0,0,0
1570468284343.75,-49,36,12,0,0,0,0,0
1570468284375,-46,35,17,0,0,0,0,0
1570468284406.25,-47,38,16,0,0,0,0,0
1570468284437.5,-50,40,13,0,0,0,0,0
1570468284468.75,-57,39,8,0,0,0,0,0
1570468284500,-57,38,9,0,0,0,0,0
1570468284531.25,-52,35,14,0,0,0,0,0
1570468284562.5,-50,34,16,0,0,0,0,0
1570468284593.75,-48,37,14,0,0,0,0,0
1570468284625,-49,38,12,0,0,0,0,0
1570468284656.25,-49,40,12,0,0,0,0,0
1570468284687.5,-49,41,12,0,0,0,0,0
1570468284718.75,-47,42,13,0,0,0,0,0
1570468284750,-47,42,13,0,0,0,0,0
1570468284781.25,-49,40,13,0,0,0,0,0
1570468284812.5,-50,39,13,0,0,0,0,0
1570468284843.75,-50,38,14,0,0,0,0,0
1570468284875,-49,39,13,0,0,0,0,0
1570468284906.25,-48,38,13,0,0,0,0,0
1570468284937.5,-49,38,14,0,0,0,0,0
1570468284968.75,-49,38,15,0,0,0,0,0
1570468285000,-49,38,14,0,0,0,0,0
1570468285031.25,-50,38,14,0,0,0,0,0
1570468285062.5,-51,40,12,0,0,0,0,0
1570468285093.75,-52,41,12,0,0,0,0,0
1570468285125,-51,41,13,0,0,0,0,0
1570468285156.25,-49,40,14,0,0,0,0,0
1570468285187.5,-49,41,16,0,0,0,0,0
1570468285218.75,-62,44,13,0,0,0,0,0
1570468285250,-78,44,10,0,0,0,0,0
1570468285281.25,-93,36,6,0,0,0,0,0
1570468285312.5,-73,33,15,0,0,0,0,0
1570468285343.75,-19,30,59,0,0,0,0,0
1570468285375,-21,28,67,0,0,0,0,0
1570468285406.25,-40,42,56,0,0,0,0,0
1570468285437.5,-37,48,51,0,0,0,0,0
1570468285468.75,-32,48,51,0,0,0,0,0
1570468285500,-26,46,48,0,0,0,0,0
1570468285531.25,-12,30,44,0,0,0,0,0
1570468285562.5,6,26,49,0,0,0,0,0
1570468285593.75,35,10,61,0,0,0,0,0
1570468285625,-13,3,63,0,0,0,0,0
1570468285656.25,-3,7,52,0,0,0,0,0
1570468285687.5,9,29,15,0,0,0,0,0
1570468285718.75,5,26,4,0,0,0,0,0
1570468285750,13,24,-7,0,0,0,0,0
1570468285781.25,15,25,-9,0,0,0,0,0
1570468285812.5,27,22,-12,0,0,0,0,0
1570468285843.75,34,19,-16,0,0,0,0,0
1570468285875,61,30,-25,0,0,0,0,0
1570468285906.25,71,36,-32,0,0,0,0,0
1570468285937.5,59,38,-59,0,0,0,0,0
1570468285968.75,46,31,-68,0,0,0,0,0
1570468286000,24,25,-68,0,0,0,0,0
1570468286031.25,10,7,-60,0,0,0,0,0
1570468286062.5,1,0,-64,0,0,0,0,0
1570468286093.75,17,13,-85,0,0,0,0,0
1570468286125,30,26,-98,0,0,0,0,0
1570468286156.25,25,29,-99,0,0,0,0,0
1570468286187.5,16,29,-88,0,0,0,0,0
1570468286218.75,7,29,-70,0,0,0,0,0
1570468286250,10,30,-66,0,0,0,0,0
1570468286281.25,11,30,-55,0,0,0,0,0
1570468286312.5,12,30,-49,0,0,0,0,0
1570468286343.75,10,37,-43,0,0,0,0,0
1570468286375,3,39,-39,0,0,0,0,0
1570468286406.25,-3,44,-33,0,0,0,0,0
1570468286437.5,-9,44,-25,0,0,0,0,0
1570468286468.75,-10,45,-21,0,0,0,0,0
1570468286500,-14,49,-16,0,0,0,0,0
1570468286531.25,-18,50,-13,0,0,0,0,0
1570468286562.5,-26,58,-9,0,0,0,0,0
1570468286593.75,-41,52,-7,0,0,0,0,0
1570468286625,-69,47,-13,0,0,0,0,0
1570468286656.25,-67,33,-8,0,0,0,0,0
1570468286687.5,-14,38,19,0,0,0,0,0
1570468286718.75,21,51,36,0,0,0,0,0
1570468286750,30,26,45,0,0,0,0,0
1570468286781.25,32,18,52,0,0,0,0,0
1570468286812.5,24,-1,47,0,0,0,0,0
1570468286843.75,36,4,1,0,0,0,0,0
1570468286875,58,0,25,0,0,0,0,0
1570468286906.25,60,-1,25,0,0,0,0,0
1570468286937.5,68,9,25,0,0,0,0,0
1570468286968.75,45,5,17,0,0,0,0,0
1570468287000,21,-7,14,0,0,0,0,0
1570468287031.25,62,4,52,0,0,0,0,0
1570468287062.5,51,-13,56,0,0,0,0,0
1570468287093.75,43,-31,68,0,0,0,0,0
1570468287125,43,-33,67,0,0,0,0,0
1570468287156.25,42,-29,52,0,0,0,0,0
1570468287187.5,37,-27,33,0,0,0,0,0
1570468287218.75,8,-26,26,0,0,0,0,0
1570468287250,10,-36,37,0,0,0,0,0
1570468287281.25,25,-39,41,0,0,0,0,0
1570468287312.5,12,-54,61,0,0,0,0,0
1570468287343.75,-1,-46,58,0,0,0,0,0
1570468287375,-6,-49,52,0,0,0,0,0
1570468287406.25,-57,-50,79,0,0,0,0,0
1570468287437.5,-27,-75,127,0,0,0,0,0
1570468287468.75,-23,-44,86,0,0,0,0,0
1570468287500,18,-27,84,0,0,0,0,0
1570468287531.25,16,-38,75,0,0,0,0,0
1570468287562.5,-15,-42,45,0,0,0,0,0
1570468287593.75,25,-31,35,0,0,0,0,0
1570468287625,33,-35,29,0,0,0,0,0
1570468287656.25,30,-31,6,0,0,0,0,0
1570468287687.5,-3,-33,-5,0,0,0,0,0
1570468287718.75,-43,-40,-2,0,0,0,0,0
1570468287750,-53,-42,-1,0,0,0,0,0
1570468287781.25,-48,-61,40,0,0,0,0,0
1570468287812.5,-38,-65,56,0,0,0,0,0
1570468287843.75,-11,-61,65,0,0,0,0,0
1570468287875,-30,-69,42,0,0,0,0,0
1570468287906.25,7,-69,32,0,0,0,0,0
1570468287937.5,21,-74,42,0,0,0,0,0
1570468287968.75,31,-69,58,0,0,0,0,0
1570468288000,-12,-69,32,0,0,0,0,0
1570468288031.25,-35,-68,18,0,0,0,0,0
1570468288062.5,-4,-59,26,0,0,0,0,0
1570468288093.75,35,-54,36,0,0,0,0,0
1570468288125,46,-47,46,0,0,0,0,0
1570468288156.25,24,-53,36,0,0,0,0,0
1570468288187.5,3,-64,33,0,0,0,0,0
1570468288218.75,16,-60,33,0,0,0,0,0
1570468288250,31,-46,25,0,0,0,0,0
1570468288281.25,29,-40,20,0,0,0,0,0
1570468288312.5,8,-39,16,0,0,0,0,0
1570468288343.75,2,-42,12,0,0,0,0,0
1570468288375,4,-42,11,0,0,0,0,0
1570468288406.25,-5,-43,9,0,0,0,0,0
1570468288437.5,-21,-56,10,0,0,0,0,0
1570468288468.75,-1,-63,29,0,0,0,0,0
1570468288500,-3,-68,33,0,0,0,0,0
1570468288531.25,22,-71,59,0,0,0,0,0
1570468288562.5,42,-78,56,0,0,0,0,0
1570468288593.75,9,-69,18,0,0,0,0,0
1570468288625,10,-60,19,0,0,0,0,0
1570468288656.25,41,-73,48,0,0,0,0,0
1570468288687.5,0,-62,4,0,0,0,0,0
1570468288718.75,-3,-58,-7,0,0,0,0,0
1570468288750,3,-58,-4,0,0,0,0,0
1570468288781.25,7,-64,29,0,0,0,0,0
1570468288812.5,2,-64,26,0,0,0,0,0
1570468288843.75,-22,-65,18,0,0,0,0,0
1570468288875,-1,-60,16,0,0,0,0,0
1570468288906.25,2,-64,17,0,0,0,0,0
1570468288937.5,25,-57,-7,0,0,0,0,0
1570468288968.75,-17,-70,6,0,0,0,0,0
1570468289000,-17,-68,10,0,0,0,0,0
1570468289031.25,-23,-67,9,0,0,0,0,0
1570468289062.5,-8,-64,12,0,0,0,0,0
1570468289093.75,-9,-63,10,0,0,0,0,0
1570468289125,-17,-61,13,0,0,0,0,0
1570468289156.25,-19,-61,11,0,0,0,0,0
1570468289187.5,-23,-62,-7,0,0,0,0,0
1570468289218.75,-26,-62,-12,0,0,0,0,0
1570468289250,-14,-68,17,0,0,0,0,0
1570468289281.25,-1,-58,17,0,0,0,0,0
1570468289312.5,-11,-59,12,0,0,0,0,0
1570468289343.75,-24,-58,13,0,0,0,0,0
1570468289375,-28,-42,-7,0,0,0,0,0
1570468289406.25,-11,-66,19,0,0,0,0,0
1570468289437.5,-13,-52,16,0,0,0,0,0
1570468289468.75,-17,-51,5,0,0,0,0,0
1570468289500,-23,-56,11,0,0,0,0,0
1570468289531.25,-20,-51,8,0,0,0,0,0
1570468289562.5,-14,-56,6,0,0,0,0,0
1570468289593.75,-20,-57,-3,0,0,0,0,0
1570468289625,-17,-55,-2,0,0,0,0,0
1570468289656.25,0,-46,10,0,0,0,0,0
1570468289687.5,-74,-63,35,0,0,0,0,0
1570468289718.75,-66,-36,-48,0,0,0,0,0
1570468289750,-97,-16,-63,0,0,0,0,0
1570468289781.25,-48,-41,-44,0,0,0,0,0
1570468289812.5,28,-84,36,0,0,0,0,0
1570468289843.75,52,-128,108,0,0,0,0,0
1570468289875,-32,-84,22,0,0,0,0,0
1570468289906.25,-24,-95,8,0,0,0,0,0
1570468289937.5,-12,-58,-17,0,0,0,0,0
1570468289968.75,14,-47,-17,0,0,0,0,0
1570468290000,62,-59,5,0,0,0,0,0
1570468290031.25,52,-85,5,0,0,0,0,0
1570468290062.5,-22,-121,-44,0,0,0,0,0
1570468290093.75,-84,-66,-41,0,0,0,0,0
1570468290125,6,-27,-21,0,0,0,0,0
1570468290156.25,-52,-58,-11,0,0,0,0,0
1570468290187.5,-38,-108,26,0,0,0,0,0
1570468290218.75,-42,-40,72,0,0,0,0,0
1570468290250,56,-70,77,0,0,0,0,0
1570468290281.25,14,-77,-8,0,0,0,0,0
1570468290312.5,-32,-74,-14,0,0,0,0,0
1570468290343.75,-33,-84,13,0,0,0,0,0
1570468290375,-24,-97,27,0,0,0,0,0
1570468290406.25,35,-90,40,0,0,0,0,0
1570468290437.5,57,-74,34,0,0,0,0,0
1570468290468.75,44,-88,34,0,0,0,0,0
1570468290500,33,-100,39,0,0,0,0,0
1570468290531.25,14,-94,22,0,0,0,0,0
1570468290562.5,5,-59,13,0,0,0,0,0
1570468290593.75,-2,-41,16,0,0,0,0,0
1570468290625,-40,-22,14,0,0,0,0,0
1570468290656.25,-43,-10,20,0,0,0,0,0
1570468290687.5,-40,-8,35,0,0,0,0,0
1570468290718.75,-51,-3,37,0,0,0,0,0
1570468290750,-54,-4,46,0,0,0,0,0
1570468290781.25,-46,-2,50,0,0,0,0,0
1570468290812.5,-81,4,40,0,0,0,0,0
1570468290843.75,-108,1,32,0,0,0,0,0
1570468290875,-55,-4,47,0,0,0,0,0
1570468290906.25,-25,2,55,0,0,0,0,0
1570468290937.5,-14,1,58,0,0,0,0,0
1570468290968.75,-1,5,57,0,0,0,0,0
1570468291000,5,7,53,0,0,0,0,0
1570468291031.25,-18,4,54,0,0,0,0,0
1570468291062.5,-30,1,53,0,0,0,0,0
1570468291093.75,6,-3,63,0,0,0,0,0
1570468291125,11,-1,61,0,0,0,0,0
1570468291156.25,33,7,60,0,0,0,0,0
1570468291187.5,33,8,56,0,0,0,0,0
1570468291218.75,35,17,49,0,0,0,0,0
1570468291250,32,17,45,0,0,0,0,0
1570468291281.25,37,21,43,0,0,0,0,0
1570468291312.5,33,23,42,0,0,0,0,0
1570468291343.75,32,22,43,0,0,0,0,0
1570468291375,26,26,46,0,0,0,0,0
1570468291406.25,24,25,48,0,0,0,0,0
1570468291437.5,24,27,48,0,0,0,0,0
1570468291468.75,30,28,50,0,0,0,0,0
1570468291500,41,29,51,0,0,0,0,0
1570468291531.25,43,32,50,0,0,0,0,0
1570468291562.5,36,34,46,0,0,0,0,0
1570468291593.75,35,34,46,0,0,0,0,0
1570468291625,28,39,46,0,0,0,0,0
1570468291656.25,25,46,45,0,0,0,0,0
1570468291687.5,25,60,40,0,0,0,0,0
1570468291718.75,27,59,31,0,0,0,0,0
1570468291750,29,50,28,0,0,0,0,0
1570468291781.25,34,42,26,0,0,0,0,0
1570468291812.5,33,53,28,0,0,0,0,0
1570468291843.75,27,54,30,0,0,0,0,0
1570468291875,26,50,32,0,0,0,0,0
1570468291906.25,24,38,37,0,0,0,0,0
1570468291937.5,24,32,38,0,0,0,0,0
1570468291968.75,25,32,40,0,0,0,0,0
1570468292000,29,48,42,0,0,0,0,0
1570468292031.25,30,51,42,0,0,0,0,0
1570468292062.5,27,45,41,0,0,0,0,0
1570468292093.75,32,39,43,0,0,0,0,0
1570468292125,33,37,51,0,0,0,0,0
1570468292156.25,30,39,53,0,0,0,0,0
1570468292187.5,24,41,47,0,0,0,0,0
1570468292218.75,26,39,45,0,0,0,0,0
1570468292250,27,36,46,0,0,0,0,0
1570468292281.25,22,36,46,0,0,0,0,0
1570468292312.5,30,40,51,0,0,0,0,0
1570468292343.75,32,43,51,0,0,0,0,0
1570468292375,25,47,44,0,0,0,0,0
1570468292406.25,22,47,41,0,0,0,0,0
1570468292437.5,20,49,31,0,0,0,0,0
1570468292468.75,23,49,25,0,0,0,0,0
1570468292500,22,49,23,0,0,0,0,0
1570468292531.25,20,51,20,0,0,0,0,0
1570468292562.5,19,52,20,0,0,0,0,0
1570468292593.75,16,54,23,0,0,0,0,0
1570468292625,18,54,25,0,0,0,0,0
1570468292656.25,26,54,30,0,0,0,0,0
1570468292687.5,28,53,31,0,0,0,0,0
1570468292718.75,27,51,32,0,0,0,0,0
1570468292750,25,51,32,0,0,0,0,0
1570468292781.25,20,52,31,0,0,0,0,0
1570468292812.5,20,52,30,0,0,0,0,0
1570468292843.75,21,50,26,0,0,0,0,0
1570468292875,19,51,17,0,0,0,0,0
1570468292906.25,22,54,12,0,0,0,0,0
1570468292937.5,40,54,16,0,0,0,0,0
1570468292968.75,40,51,16,0,0,0,0,0
1570468293000,34,50,9,0,0,0,0,0
1570468293031.25,33,51,6,0,0,0,0,0
1570468293062.5,28,54,3,0,0,0,0,0
1570468293093.75,27,57,1,0,0,0,0,0
1570468293125,32,56,0,0,0,0,0,0
1570468293156.25,34,54,0,0,0,0,0,0
1570468293187.5,36,50,-3,0,0,0,0,0
1570468293218.75,38,49,-3,0,0,0,0,0
1570468293250,41,50,-4,0,0,0,0,0
1570468293281.25,42,48,-4,0,0,0,0,0
1570468293312.5,46,49,-4,0,0,0,0,0
1570468293343.75,48,46,-5,0,0,0,0,0
1570468293375,49,45,-5,0,0,0,0,0
1570468293406.25,48,44,-7,0,0,0,0,0
1570468293437.5,47,45,-7,0,0,0,0,0
1570468293468.75,46,45,-6,0,0,0,0,0
1570468293500,44,44,-5,0,0,0,0,0
1570468293531.25,44,44,-1,0,0,0,0,0
1570468293562.5,45,44,1,0,0,0,0,0
1570468293593.75,45,42,6,0,0,0,0,0
1570468293625,46,42,8,0,0,0,0,0
1570468293656.25,47,42,9,0,0,0,0,0
1570468293687.5,46,41,9,0,0,0,0,0
1570468293718.75,47,42,9,0,0,0,0,0
1570468293750,49,42,8,0,0,0,0,0
1570468293781.25,48,44,7,0,0,0,0,0
1570468293812.5,45,45,5,0,0,0,0,0
1570468293843.75,45,45,4,0,0,0,0,0
1570468293875,43,44,3,0,0,0,0,0
1570468293906.25,42,44,3,0,0,0,0,0
1570468293937.5,42,44,2,0,0,0,0,0
1570468293968.75,41,44,1,0,0,0,0,0
1570468294000,44,44,1,0,0,0,0,0
1570468294031.25,45,44,2,0,0,0,0,0
1570468294062.5,48,42,3,0,0,0,0,0
1570468294093.75,48,42,3,0,0,0,0,0
1570468294125,48,42,4,0,0,0,0,0
1570468294156.25,47,43,5,0,0,0,0,0
1570468294187.5,47,42,5,0,0,0,0,0
1570468294218.75,47,41,5,0,0,0,0,0
1570468294250,48,41,4,0,0,0,0,0
1570468294281.25,47,42,1,0,0,0,0,0
1570468294312.5,47,42,1,0,0,0,0,0
1570468294343.75,47,42,1,0,0,0,0,0
1570468294375,48,42,1,0,0,0,0,0
1570468294406.25,46,42,2,0,0,0,0,0
1570468294437.5,46,42,2,0,0,0,0,0
1570468294468.75,46,42,4,0,0,0,0,0
1570468294500,47,42,3,0,0,0,0,0
1570468294531.25,47,41,4,0,0,0,0,0
1570468294562.5,48,40,4,0,0,0,0,0
1570468294593.75,48,40,4,0,0,0,0,0
1570468294625,49,40,3,0,0,0,0,0
1570468294656.25,50,40,4,0,0,0,0,0
1570468294687.5,48,42,4,0,0,0,0,0
1570468294718.75,48,41,5,0,0,0,0,0
1570468294750,47,41,5,0,0,0,0,0
1570468294781.25,46,41,5,0,0,0,0,0
1570468294812.5,46,42,4,0,0,0,0,0
1570468294843.75,46,41,4,0,0,0,0,0
1570468294875,47,40,3,0,0,0,0,0
1570468294906.25,50,39,1,0,0,0,0,0
1570468294937.5,50,39,0,0,0,0,0,0
1570468294968.75,50,40,0,0,0,0,0,0
1570468295000,48,41,0,0,0,0,0,0
1570468295031.25,48,42,1,0,0,0,0,0
1570468295062.5,48,42,2,0,0,0,0,0
1570468295093.75,45,42,3,0,0,0,0,0
1570468295125,45,42,3,0,0,0,0,0
1570468295156.25,45,42,2,0,0,0,0,0
1570468295187.5,47,41,2,0,0,0,0,0
1570468295218.75,47,41,0,0,0,0,0,0
1570468295250,45,41,-3,0,0,0,0,0
1570468295281.25,44,40,-7,0,0,0,0,0
1570468295312.5,53,41,-3,0,0,0,0,0
1570468295343.75,54,39,-2,0,0,0,0,0
1570468295375,53,38,-1,0,0,0,0,0
1570468295406.25,50,38,-1,0,0,0,0,0
1570468295437.5,49,40,-1,0,0,0,0,0
1570468295468.75,50,40,-1,0,0,0,0,0
1570468295500,49,39,-3,0,0,0,0,0
1570468295531.25,49,38,-3,0,0,0,0,0
1570468295562.5,48,43,-3,0,0,0,0,0
1570468295593.75,45,44,-3,0,0,0,0,0
1570468295625,43,39,1,0,0,0,0,0
1570468295656.25,46,37,-1,0,0,0,0,0
1570468295687.5,53,37,-2,0,0,0,0,0
1570468295718.75,52,38,-2,0,0,0,0,0
1570468295750,52,38,0,0,0,0,0,0
1570468295781.25,51,38,5,0,0,0,0,0
1570468295812.5,49,38,6,0,0,0,0,0
1570468295843.75,48,39,9,0,0,0,0,0
1570468295875,45,39,9,0,0,0,0,0
1570468295906.25,48,37,6,0,0,0,0,0
1570468295937.5,49,36,4,0,0,0,0,0
1570468295968.75,52,36,0,0,0,0,0,0
1570468296000,53,37,-1,0,0,0,0,0
1570468296031.25,53,37,0,0,0,0,0,0
1570468296062.5,52,36,0,0,0,0,0,0
1570468296093.75,51,37,-1,0,0,0,0,0
1570468296125,50,37,-3,0,0,0,0,0
1570468296156.25,49,37,-4,0,0,0,0,0
1570468296187.5,54,35,-2,0,0,0,0,0
1570468296218.75,56,32,1,0,0,0,0,0
1570468296250,43,35,-4,0,0,0,0,0
1570468296281.25,52,37,-4,0,0,0,0,0
1570468296312.5,57,36,-5,0,0,0,0,0
1570468296343.75,54,35,-4,0,0,0,0,0
1570468296375,48,38,-4,0,0,0,0,0
1570468296406.25,46,39,-4,0,0,0,0,0
1570468296437.5,45,39,-4,0,0,0,0,0
1570468296468.75,45,40,-4,0,0,0,0,0
1570468296500,47,42,-5,0,0,0,0,0
1570468296531.25,48,42,-5,0,0,0,0,0
1570468296562.5,48,39,-6,0,0,0,0,0
1570468296593.75,52,27,-7,0,0,0,0,0
1570468296625,55,23,-7,0,0,0,0,0
1570468296656.25,59,26,-9,0,0,0,0,0
1570468296687.5,61,29,-8,0,0,0,0,0
1570468296718.75,57,35,-7,0,0,0,0,0
1570468296750,53,36,-4,0,0,0,0,0
1570468296781.25,49,36,0,0,0,0,0,0
1570468296812.5,48,36,1,0,0,0,0,0
1570468296843.75,49,37,2,0,0,0,0,0
1570468296875,50,37,2,0,0,0,0,0
1570468296906.25,52,35,-1,0,0,0,0,0
1570468296937.5,55,30,-4,0,0,0,0,0
1570468296968.75,56,29,-7,0,0,0,0,0
1570468297000,57,29,-10,0,0,0,0,0
1570468297031.25,56,31,-11,0,0,0,0,0
1570468297062.5,52,33,-10,0,0,0,0,0
1570468297093.75,51,33,-9,0,0,0,0,0
1570468297125,49,36,-6,0,0,0,0,0
1570468297156.25,49,36,-5,0,0,0,0,0
1570468297187.5,49,36,-2,0,0,0,0,0
1570468297218.75,50,35,0,0,0,0,0,0
1570468297250,55,33,1,0,0,0,0,0
1570468297281.25,55,32,1,0,0,0,0,0
1570468297312.5,53,32,-2,0,0,0,0,0
1570468297343.75,56,32,-3,0,0,0,0,0
1570468297375,57,31,-5,0,0,0,0,0
1570468297406.25,53,33,-7,0,0,0,0,0
1570468297437.5,53,31,-5,0,0,0,0,0
1570468297468.75,51,30,-2,0,0,0,0,0
1570468297500,52,30,-1,0,0,0,0,0
1570468297531.25,55,29,3,0,0,0,0,0
1570468297562.5,56,27,5,0,0,0,0,0
1570468297593.75,61,28,9,0,0,0,0,0
1570468297625,61,30,10,0,0,0,0,0
1570468297656.25,58,31,13,0,0,0,0,0
1570468297687.5,56,31,12,0,0,0,0,0
1570468297718.75,54,34,11,0,0,0,0,0
1570468297750,53,39,12,0,0,0,0,0
1570468297781.25,54,40,14,0,0,0,0,0
1570468297812.5,45,40,13,0,0,0,0,0
1570468297843.75,41,42,13,0,0,0,0,0
1570468297875,36,43,12,0,0,0,0,0
1570468297906.25,34,42,15,0,0,0,0,0
1570468297937.5,30,39,18,0,0,0,0,0
1570468297968.75,29,41,22,0,0,0,0,0
1570468298000,27,41,32,0,0,0,0,0
1570468298031.25,33,38,36,0,0,0,0,0
1570468298062.5,49,37,33,0,0,0,0,0
1570468298093.75,52,36,30,0,0,0,0,0
1570468298125,52,44,31,0,0,0,0,0
1570468298156.25,35,35,39,0,0,0,0,0
1570468298187.5,29,31,43,0,0,0,0,0
1570468298218.75,27,31,51,0,0,0,0,0
1570468298250,31,35,51,0,0,0,0,0
1570468298281.25,32,43,51,0,0,0,0,0
1570468298312.5,34,44,50,0,0,0,0,0
1570468298343.75,33,43,49,0,0,0,0,0
1570468298375,31,43,49,0,0,0,0,0
1570468298406.25,35,40,48,0,0,0,0,0
1570468298437.5,39,39,47,0,0,0,0,0
1570468298468.75,41,33,44,0,0,0,0,0
1570468298500,41,30,43,0,0,0,0,0
1570468298531.25,35,22,40,0,0,0,0,0
1570468298562.5,38,18,36,0,0,0,0,0
1570468298593.75,36,18,36,0,0,0,0,0
1570468298625,28,17,40,0,0,0,0,0
1570468298656.25,26,13,42,0,0,0,0,0
1570468298687.5,29,2,46,0,0,0,0,0
1570468298718.75,32,3,47,0,0,0,0,0
1570468298750,27,-6,50,0,0,0,0,0
1570468298781.25,32,-8,52,0,0,0,0,0
1570468298812.5,34,-6,52,0,0,0,0,0
1570468298843.75,33,-6,52,0,0,0,0,0
1570468298875,33,-5,54,0,0,0,0,0
1570468298906.25,31,-4,52,0,0,0,0,0
1570468298937.5,29,0,49,0,0,0,0,0
1570468298968.75,25,0,50,0,0,0,0,0
1570468299000,24,0,54,0,0,0,0,0
1570468299031.25,22,-1,59,0,0,0,0,0
1570468299062.5,25,0,60,0,0,0,0,0
1570468299093.75,30,-5,63,0,0,0,0,0
1570468299125,32,-5,61,0,0,0,0,0
1570468299156.25,16,-1,61,0,0,0,0,0
1570468299187.5,7,4,63,0,0,0,0,0
1570468299218.75,5,8,68,0,0,0,0,0
1570468299250,8,8,69,0,0,0,0,0
1570468299281.25,10,6,73,0,0,0,0,0
1570468299312.5,6,4,73,0,0,0,0,0
1570468299343.75,7,-2,71,0,0,0,0,0
1570468299375,8,-5,61,0,0,0,0,0
1570468299406.25,8,-7,60,0,0,0,0,0
1570468299437.5,16,-6,55,0,0,0,0,0
1570468299468.75,36,-6,59,0,0,0,0,0
1570468299500,-52,2,40,0,0,0,0,0
1570468299531.25,-22,3,50,0,0,0,0,0
1570468299562.5,3,-7,69,0,0,0,0,0
1570468299593.75,-11,-12,69,0,0,0,0,0
1570468299625,-19,-17,71,0,0,0,0,0
1570468299656.25,-21,-15,71,0,0,0,0,0
1570468299687.5,-15,-9,64,0,0,0,0,0
1570468299718.75,-9,-5,58,0,0,0,0,0
1570468299750,-15,0,50,0,0,0,0,0
1570468299781.25,-29,-1,56,0,0,0,0,0
1570468299812.5,-31,-1,57,0,0,0,0,0
1570468299843.75,-26,-10,70,0,0,0,0,0
1570468299875,-7,-23,92,0,0,0,0,0
1570468299906.25,-22,-18,74,0,0,0,0,0
1570468299937.5,-18,-11,68,0,0,0,0,0
1570468299968.75,-25,-7,54,0,0,0,0,0
1570468300000,-35,-3,44,0,0,0,0,0
1570468300031.25,-42,-1,39,0,0,0,0,0
1570468300062.5,-40,-2,39,0,0,0,0,0
1570468300093.75,-37,-7,42,0,0,0,0,0
1570468300125,-52,-18,62,0,0,0,0,0
1570468300156.25,-29,-12,48,0,0,0,0,0
1570468300187.5,20,2,56,0,0,0,0,0
1570468300218.75,15,2,63,0,0,0,0,0
1570468300250,-39,6,72,0,0,0,0,0
1570468300281.25,-43,0,50,0,0,0,0,0
1570468300312.5,-28,6,56,0,0,0,0,0
1570468300343.75,-21,2,59,0,0,0,0,0
1570468300375,-6,0,71,0,0,0,0,0
1570468300406.25,-13,3,67,0,0,0,0,0
1570468300437.5,-33,6,52,0,0,0,0,0
1570468300468.75,-43,3,45,0,0,0,0,0
1570468300500,-52,7,43,0,0,0,0,0
1570468300531.25,-49,10,45,0,0,0,0,0
1570468300562.5,-36,7,55,0,0,0,0,0
1570468300593.75,-36,6,56,0,0,0,0,0
1570468300625,-36,6,54,0,0,0,0,0
1570468300656.25,-37,3,52,0,0,0,0,0
1570468300687.5,-36,1,52,0,0,0,0,0
1570468300718.75,-36,0,51,0,0,0,0,0
1570468300750,-37,0,53,0,0,0,0,0
1570468300781.25,-33,2,62,0,0,0,0,0
1570468300812.5,-32,-1,68,0,0,0,0,0
1570468300843.75,-30,0,44,0,0,0,0,0
1570468300875,-26,-4,48,0,0,0,0,0
1570468300906.25,-27,-2,51,0,0,0,0,0
1570468300937.5,-35,-2,40,0,0,0,0,0
1570468300968.75,-33,-2,50,0,0,0,0,0
1570468301000,-24,0,59,0,0,0,0,0
1570468301031.25,-27,0,56,0,0,0,0,0
1570468301062.5,-34,3,53,0,0,0,0,0
1570468301093.75,-31,4,53,0,0,0,0,0
1570468301125,-30,10,56,0,0,0,0,0
1570468301156.25,-37,10,54,0,0,0,0,0
1570468301187.5,-47,13,49,0,0,0,0,0
1570468301218.75,-46,12,49,0,0,0,0,0
1570468301250,-43,11,49,0,0,0,0,0
1570468301281.25,-41,11,48,0,0,0,0,0
1570468301312.5,-43,11,45,0,0,0,0,0
1570468301343.75,-44,12,45,0,0,0,0,0
1570468301375,-42,11,46,0,0,0,0,0
1570468301406.25,-40,12,50,0,0,0,0,0
1570468301437.5,-37,12,51,0,0,0,0,0
1570468301468.75,-39,12,50,0,0,0,0,0
1570468301500,-45,13,46,0,0,0,0,0
1570468301531.25,-45,10,44,0,0,0,0,0
1570468301562.5,-44,10,46,0,0,0,0,0
1570468301593.75,-39,12,51,0,0,0,0,0
1570468301625,-38,11,50,0,0,0,0,0
1570468301656.25,-43,10,45,0,0,0,0,0
1570468301687.5,-44,10,44,0,0,0,0,0
1570468301718.75,-39,8,47,0,0,0,0,0
1570468301750,-41,10,48,0,0,0,0,0
1570468301781.25,-43,10,47,0,0,0,0,0
1570468301812.5,-42,9,47,0,0,0,0,0
1570468301843.75,-42,8,48,0,0,0,0,0
1570468301875,-42,5,47,0,0,0,0,0
1570468301906.25,-39,8,47,0,0,0,0,0
1570468301937.5,-38,9,47,0,0,0,0,0
1570468301968.75,-41,10,45,0,0,0,0,0
1570468302000,-45,11,46,0,0,0,0,0
1570468302031.25,-46,11,45,0,0,0,0,0
1570468302062.5,-41,11,48,0,0,0,0,0
1570468302093.75,-41,11,48,0,0,0,0,0
1570468302125,-43,11,47,0,0,0,0,0
1570468302156.25,-44,11,46,0,0,0,0,0
1570468302187.5,-43,11,46,0,0,0,0,0
1570468302218.75,-44,9,45,0,0,0,0,0
1570468302250,-45,9,46,0,0,0,0,0
1570468302281.25,-41,12,51,0,0,0,0,0
1570468302312.5,-43,11,49,0,0,0,0,0
1570468302343.75,-40,8,48,0,0,0,0,0
