Timestamp,ACC_X,ACC_Y,ACC_Z,Note,AGG,ED,SIB,Condition
1576868600000,0,0,0,0,0,0,0,0
1576868600031.25,0,0,0,0,0,0,0,0
1576868600062.5,0,0,0,0,0,0,0,0
1576868600093.75,0,0,0,0,0,0,0,0
1576868600125,0,0,0,0,0,0,0,0
1576868600156.25,0,0,0,0,0,0,0,0
1576868600187.5,0,0,0,0,0,0,0,0
1576868600218.75,0,0,0,0,0,0,0,0
1576868600250,0,0,0,0,0,0,0,0
1576868600281.25,0,0,0,0,0,0,0,0
1576868600312.5,0,0,0,0,0,0,0,0
1576868600343.75,0,0,0,0,0,0,0,0
1576868600375,0,0,0,0,0,0,0,0
1576868600406.25,0,0,0,0,0,0,0,0
1576868600437.5,0,0,0,0,0,0,0,0
1576868600468.75,0,0,0,0,0,0,0,0
1576868600500,0,0,0,0,0,0,0,0
1576868600531.25,0,0,0,0,0,0,0,0
1576868600562.5,0,0,0,0,0,0,0,0
1576868600593.75,0,0,0,0,0,0,0,0
1576868600625,0,0,0,0,0,0,0,0
1576868600656.25,0,0,0,0,0,0,0,0
1576868600687.5,0,0,0,0,0,0,0,0
1576868600718.75,0,0,0,0,0,0,0,0
1576868600750,0,0,0,0,0,0,0,0
1576868600781.25,0,0,0,0,0,0,0,0
1576868600812.5,0,0,0,0,0,0,0,0
1576868600843.75,0,0,0,1,0,0,0,0
1576868600875,0,0,0,1,0,0,0,0
1576868600906.25,0,0,0,1,0,0,0,0
1576868600937.5,0,0,0,1,0,0,0,0
1576868600968.75,0,0,0,1,0,0,0,0
1576868601000,0,0,0,1,0,0,0,0
1576868601031.25,0,0,0,1,0,0,0,0
1576868601062.5,0,0,0,1,0,0,0,0
1576868601093.75,0,0,0,1,0,0,0,0
1576868601125,0,0,0,1,0,0,0,0
1576868601156.25,0,0,0,1,0,0,0,0
1576868601187.5,0,0,0,1,0,0,0,0
1576868601218.75,0,0,0,1,0,0,0,0
1576868601250,0,0,0,0,0,0,0,0
1576868601281.25,0,0,0,0,0,0,0,0
1576868601312.5,0,0,0,0,0,0,0,0
1576868601343.75,0,0,0,0,0,0,0,0
1576868601375,0,0,0,0,0,0,0,0
1576868601406.25,0,0,0,0,0,0,0,0
1576868601437.5,0,0,0,0,0,0,0,0
1576868601468.75,0,0,0,0,0,0,0,0
1576868601500,0,0,0,0,0,0,0,0
1576868601531.25,0,0,0,0,0,0,0,0
1576868601562.5,0,0,0,0,0,0,0,0
1576868601593.75,0,0,0,0,0,0,0,0
1576868601625,0,0,0,0,0,0,0,0
1576868601656.25,0,0,0,0,0,0,0,0
1576868601687.5,0,0,0,0,0,0,0,0
1576868601718.75,0,0,0,0,0,0,0,0
1576868601750,0,0,0,0,0,0,0,0
1576868601781.25,0,0,0,0,0,0,0,0
1576868601812.5,0,0,0,0,0,0,0,0
1576868601843.75,0,0,0,0,0,0,0,0
1576868601875,0,0,0,0,0,0,0,0
1576868601906.25,0,0,0,0,0,0,0,0
1576868601937.5,0,0,0,0,0,0,0,0
1576868601968.75,0,0,0,0,0,0,0,0
1576868602000,0,0,0,0,0,0,0,0
1576868602031.25,0,0,0,0,0,0,0,0
1576868602062.5,0,0,0,0,0,0,0,0
1576868602093.75,0,0,0,0,0,0,0,0
1576868602125,0,0,0,0,0,0,0,0
1576868602156.25,0,0,0,0,0,0,0,0
1576868602187.5,0,0,0,0,0,0,0,0
1576868602218.75,0,0,0,0,0,0,0,0
1576868602250,0,0,0,0,0,0,0,0
1576868602281.25,0,0,0,0,0,0,0,0
1576868602312.5,0,0,0,0,0,0,0,0
1576868602343.75,0,0,0,0,0,0,0,0
1576868602375,0,0,0,0,0,0,0,0
1576868602406.25,0,0,0,0,0,0,0,0
1576868602437.5,0,0,0,0,0,0,0,0
1576868602468.75,0,0,0,0,0,0,0,0
1576868602500,0,0,0,0,0,0,0,0
1576868602531.25,0,0,0,0,0,0,0,0
1576868602562.5,0,0,0,0,0,0,0,0
1576868602593.75,0,0,0,0,0,0,0,0
1576868602625,0,0,0,0,0,0,0,0
1576868602656.25,0,0,0,0,0,0,0,0
1576868602687.5,0,0,0,0,0,0,0,0
1576868602718.75,0,0,0,0,0,0,0,0
1576868602750,0,0,0,0,0,0,0,0
1576868602781.25,0,0,0,0,0,0,0,0
1576868602812.5,0,0,0,0,0,0,0,0
1576868602843.75,0,0,0,0,0,0,0,0
1576868602875,0,0,0,0,0,0,0,0
1576868602906.25,0,0,0,0,0,0,0,0
1576868602937.5,0,0,0,0,0,0,0,0
1576868602968.75,0,0,0,0,0,0,0,0
1576868603000,0,0,0,0,0,0,0,0
1576868603031.25,0,0,0,0,0,0,0,0
1576868603062.5,0,0,0,0,0,0,0,0
1576868603093.75,0,0,0,0,0,0,0,0
1576868603125,0,0,0,0,0,0,0,0
1576868603156.25,0,0,0,0,0,0,0,0
1576868603187.5,0,0,0,0,0,0,0,0
1576868603218.75,0,0,0,0,0,0,0,0
1576868603250,0,0,0,0,0,0,0,0
1576868603281.25,0,0,0,0,0,0,0,0
1576868603312.5,0,0,0,0,0,0,0,0
1576868603343.75,0,0,0,0,0,0,0,0
1576868603375,0,0,0,0,0,0,0,0
1576868603406.25,0,0,0,0,0,0,0,0
1576868603437.5,0,0,0,0,0,0,0,0
1576868603468.75,0,0,0,0,0,0,0,0
1576868603500,0,0,0,0,0,0,0,0
1576868603531.25,0,0,0,0,0,0,0,0
1576868603562.5,0,0,0,0,0,0,0,0
1576868603593.75,0,0,0,0,0,0,0,0
1576868603625,0,0,0,0,0,0,0,0
1576868603656.25,0,0,0,0,0,0,0,0
1576868603687.5,0,0,0,0,0,0,0,0
1576868603718.75,0,0,0,0,0,0,0,0
1576868603750,0,0,0,0,0,0,0,0
1576868603781.25,0,0,0,0,0,0,0,0
1576868603812.5,0,0,0,0,0,0,0,0
1576868603843.75,0,0,0,0,0,0,0,0
1576868603875,0,0,0,0,0,0,0,0
1576868603906.25,0,0,0,0,0,0,0,0
1576868603937.5,0,0,0,0,0,0,0,0
1576868603968.75,0,0,0,0,0,0,0,0
1576868604000,0,0,0,0,0,0,0,0
1576868604031.25,0,0,0,0,0,0,0,0
1576868604062.5,0,0,0,0,0,0,0,0
1576868604093.75,0,0,0,0,0,0,0,0
1576868604125,0,0,0,0,0,0,0,0
1576868604156.25,0,0,0,0,0,0,0,0
1576868604187.5,0,0,0,0,0,0,0,0
1576868604218.75,0,0,0,0,0,0,0,0
1576868604250,0,0,0,0,0,0,0,0
1576868604281.25,0,0,0,0,0,0,0,0
1576868604312.5,0,0,0,0,0,0,0,0
1576868604343.75,0,0,0,0,0,0,0,0
1576868604375,0,0,0,0,0,0,0,0
1576868604406.25,0,0,0,0,0,0,0,0
1576868604437.5,0,0,0,0,0,0,0,0
1576868604468.75,0,0,0,0,0,0,0,0
1576868604500,0,0,0,0,0,0,0,0
1576868604531.25,0,0,0,0,0,0,0,0
1576868604562.5,0,0,0,0,0,0,0,0
1576868604593.75,0,0,0,0,0,0,0,0
1576868604625,0,0,0,0,0,0,0,0
1576868604656.25,0,0,0,0,0,0,0,0
1576868604687.5,0,0,0,0,0,0,0,0
1576868604718.75,0,0,0,0,0,0,0,0
1576868604750,0,0,0,0,0,0,0,0
1576868604781.25,0,0,0,0,0,0,0,0
1576868604812.5,0,0,0,0,0,0,0,0
1576868604843.75,0,0,0,0,0,0,0,0
1576868604875,0,0,0,0,0,0,0,0
1576868604906.25,0,0,0,0,0,0,0,0
1576868604937.5,0,0,0,0,0,0,0,0
1576868604968.75,0,0,0,0,0,0,0,0
1576868605000,-33,52,21,0,0,0,0,0
1576868605031.25,-33,51,21,0,0,0,0,0
1576868605062.5,-33,51,21,0,0,0,0,0
1576868605093.75,-33,50,21,0,0,0,0,0
1576868605125,-33,51,21,0,0,0,0,0
1576868605156.25,-34,51,21,0,0,0,0,0
1576868605187.5,-34,51,21,0,0,0,0,0
1576868605218.75,-33,51,20,0,0,0,0,0
1576868605250,-33,51,20,0,0,0,0,0
1576868605281.25,-33,51,20,0,0,0,0,0
1576868605312.5,-33,51,21,0,0,0,0,0
1576868605343.75,-33,51,21,0,0,0,0,0
1576868605375,-33,51,21,0,0,0,0,0
1576868605406.25,-33,51,21,0,0,0,0,0
1576868605437.5,-33,51,21,0,0,0,0,0
1576868605468.75,-33,51,21,0,0,0,0,0
1576868605500,-33,51,21,0,0,0,0,0
1576868605531.25,-34,51,21,0,0,0,0,0
1576868605562.5,-33,51,21,0,0,0,0,0
1576868605593.75,-33,51,21,0,0,0,0,0
1576868605625,-32,52,21,0,0,0,0,0
1576868605656.25,-33,51,21,0,0,0,0,0
1576868605687.5,-33,51,21,0,0,0,0,0
1576868605718.75,-32,52,21,0,0,0,0,0
1576868605750,-32,51,21,0,0,0,0,0
1576868605781.25,-33,51,21,0,0,0,0,0
1576868605812.5,-33,51,21,0,0,0,0,0
1576868605843.75,-33,51,21,0,0,0,0,0
1576868605875,-33,51,20,0,0,0,0,0
1576868605906.25,-32,52,21,0,0,0,0,0
1576868605937.5,-33,51,21,0,0,0,0,0
1576868605968.75,-34,51,20,0,0,0,0,0
1576868606000,-33,51,20,0,0,0,0,0
1576868606031.25,-32,52,20,0,0,0,0,0
1576868606062.5,-34,51,21,0,0,0,0,0
1576868606093.75,-35,50,21,0,0,0,0,0
1576868606125,-34,51,20,0,0,0,0,0
1576868606156.25,-33,52,20,0,0,0,0,0
1576868606187.5,-32,52,21,0,0,0,0,0
1576868606218.75,-33,51,21,0,0,0,0,0
1576868606250,-34,51,20,0,0,0,0,0
1576868606281.25,-34,51,20,0,0,0,0,0
1576868606312.5,-33,51,20,0,0,0,0,0
1576868606343.75,-33,51,20,0,0,0,0,0
1576868606375,-33,52,20,0,0,0,0,0
1576868606406.25,-33,51,20,0,0,0,0,0
1576868606437.5,-33,52,20,0,0,0,0,0
1576868606468.75,-33,51,20,0,0,0,0,0
1576868606500,-33,52,20,0,0,0,0,0
1576868606531.25,-33,52,20,0,0,0,0,0
1576868606562.5,-33,52,20,0,0,0,0,0
1576868606593.75,-34,51,20,0,0,0,0,0
1576868606625,-34,51,19,0,0,0,0,0
1576868606656.25,-35,50,19,0,0,0,0,0
1576868606687.5,-36,50,19,0,0,0,0,0
1576868606718.75,-35,50,19,0,0,0,0,0
1576868606750,-35,51,19,0,0,0,0,0
1576868606781.25,-34,51,18,0,0,0,0,0
1576868606812.5,-35,51,20,0,0,0,0,0
1576868606843.75,-35,50,19,0,0,0,0,0
1576868606875,-34,51,19,0,0,0,0,0
1576868606906.25,-34,50,20,0,0,0,0,0
1576868606937.5,-35,51,19,0,0,0,0,0
1576868606968.75,-34,51,19,0,0,0,0,0
1576868607000,-35,51,19,0,0,0,0,0
1576868607031.25,-34,51,19,0,0,0,0,0
1576868607062.5,-36,51,19,0,0,0,0,0
1576868607093.75,-34,51,19,0,0,0,0,0
1576868607125,-33,51,19,0,0,0,0,0
1576868607156.25,-34,51,19,0,0,0,0,0
1576868607187.5,-34,52,19,0,0,0,0,0
1576868607218.75,-34,51,19,0,0,0,0,0
1576868607250,-34,52,19,0,0,0,0,0
1576868607281.25,-33,52,19,0,0,0,0,0
1576868607312.5,-33,52,19,0,0,0,0,0
1576868607343.75,-33,51,19,0,0,0,0,0
1576868607375,-34,51,19,0,0,0,0,0
1576868607406.25,-34,51,19,0,0,0,0,0
1576868607437.5,-33,52,19,0,0,0,0,0
1576868607468.75,-34,52,19,0,0,0,0,0
1576868607500,-34,52,19,0,0,0,0,0
1576868607531.25,-34,51,19,0,0,0,0,0
1576868607562.5,-34,51,19,0,0,0,0,0
1576868607593.75,-34,52,19,0,0,0,0,0
1576868607625,-34,51,19,0,0,0,0,0
1576868607656.25,-33,51,19,0,0,0,0,0
1576868607687.5,-35,50,19,0,0,0,0,0
1576868607718.75,-35,50,19,0,0,0,0,0
1576868607750,-35,51,19,0,0,0,0,0
1576868607781.25,-35,51,19,0,0,0,0,0
1576868607812.5,-34,51,19,0,0,0,0,0
1576868607843.75,-34,51,19,0,0,0,0,0
1576868607875,-35,51,19,0,0,0,0,0
1576868607906.25,-35,51,19,0,0,0,0,0
1576868607937.5,-34,51,18,0,0,0,0,0
1576868607968.75,-34,51,19,0,0,0,0,0
1576868608000,-34,51,19,0,0,0,0,0
1576868608031.25,-34,51,19,0,0,0,0,0
1576868608062.5,-34,51,19,0,0,0,0,0
1576868608093.75,-35,51,19,0,0,0,0,0
1576868608125,-34,51,19,0,0,0,0,0
1576868608156.25,-34,51,19,0,0,0,0,0
1576868608187.5,-34,51,19,0,0,0,0,0
1576868608218.75,-35,51,19,0,0,0,0,0
1576868608250,-34,51,19,0,0,0,0,0
1576868608281.25,-35,51,19,0,0,0,0,0
1576868608312.5,-35,51,19,0,0,0,0,0
1576868608343.75,-34,51,19,0,0,0,0,0
1576868608375,-34,51,19,0,0,0,0,0
1576868608406.25,-34,51,19,0,0,0,0,0
1576868608437.5,-34,51,19,0,0,0,0,0
1576868608468.75,-35,51,19,0,0,0,0,0
1576868608500,-34,51,19,0,0,0,0,0
1576868608531.25,-35,51,19,0,0,0,0,0
1576868608562.5,-34,51,19,0,0,0,0,0
1576868608593.75,-35,51,19,0,0,0,0,0
1576868608625,-34,51,19,0,0,0,0,0
1576868608656.25,-35,50,19,0,0,0,0,0
1576868608687.5,-36,50,18,0,0,0,0,0
1576868608718.75,-37,50,19,0,0,0,0,0
1576868608750,-36,49,19,0,0,0,0,0
1576868608781.25,-36,50,19,0,0,0,0,0
1576868608812.5,-35,50,19,0,0,0,0,0
1576868608843.75,-36,50,19,0,0,0,0,0
1576868608875,-35,50,19,0,0,0,0,0
1576868608906.25,-36,50,19,0,0,0,0,0
1576868608937.5,-36,50,19,0,0,0,0,0
1576868608968.75,-36,50,19,0,0,0,0,0
1576868609000,-36,50,19,0,0,0,0,0
1576868609031.25,-36,50,19,0,0,0,0,0
1576868609062.5,-36,50,19,0,0,0,0,0
1576868609093.75,-36,50,19,0,0,0,0,0
1576868609125,-36,49,19,0,0,0,0,0
1576868609156.25,-36,49,19,0,0,0,0,0
1576868609187.5,-36,50,19,0,0,0,0,0
1576868609218.75,-36,50,19,0,0,0,0,0
1576868609250,-36,50,19,0,0,0,0,0
1576868609281.25,-36,50,19,0,0,0,0,0
1576868609312.5,-36,50,19,0,0,0,0,0
1576868609343.75,-35,50,19,0,0,0,0,0
1576868609375,-35,50,19,0,0,0,0,0
1576868609406.25,-35,50,19,0,0,0,0,0
1576868609437.5,-35,50,19,0,0,0,0,0
1576868609468.75,-35,51,19,0,0,0,0,0
1576868609500,-35,50,19,0,0,0,0,0
1576868609531.25,-35,51,19,0,0,0,0,0
1576868609562.5,-35,51,19,0,0,0,0,0
1576868609593.75,-35,51,19,0,0,0,0,0
1576868609625,-35,50,19,0,0,0,0,0
1576868609656.25,-36,50,19,0,0,0,0,0
1576868609687.5,-36,50,19,0,0,0,0,0
1576868609718.75,-35,51,19,0,0,0,0,0
1576868609750,-35,51,18,0,0,0,0,0
1576868609781.25,-35,50,18,0,0,0,0,0
1576868609812.5,-35,50,18,0,0,0,0,0
1576868609843.75,-35,50,19,0,0,0,0,0
1576868609875,-35,50,19,0,0,0,0,0
1576868609906.25,-36,50,19,0,0,0,0,0
1576868609937.5,-35,50,18,0,0,0,0,0
1576868609968.75,-36,50,18,0,0,0,0,0
1576868610000,-36,50,19,0,0,0,0,0
1576868610031.25,-36,50,18,0,0,0,0,0
1576868610062.5,-36,50,19,0,0,0,0,0
1576868610093.75,-35,50,19,0,0,0,0,0
1576868610125,-36,50,18,0,0,0,0,0
1576868610156.25,-36,50,18,0,0,0,0,0
1576868610187.5,-35,50,19,0,0,0,0,0
1576868610218.75,-36,50,18,0,0,0,0,0
1576868610250,-36,50,19,0,0,0,0,0
1576868610281.25,-35,50,19,0,0,0,0,0
1576868610312.5,-35,51,19,0,0,0,0,0
1576868610343.75,-35,50,19,0,0,0,0,0
1576868610375,-36,50,19,0,0,0,0,0
1576868610406.25,-36,50,19,0,0,0,0,0
1576868610437.5,-36,50,19,0,0,0,0,0
1576868610468.75,-35,50,19,0,0,0,0,0
1576868610500,-35,50,19,0,0,0,0,0
1576868610531.25,-35,50,19,0,0,0,0,0
1576868610562.5,-35,50,19,0,0,0,0,0
1576868610593.75,-36,50,18,0,0,0,0,0
1576868610625,-36,50,19,0,0,0,0,0
1576868610656.25,-35,50,19,0,0,0,0,0
1576868610687.5,-36,50,19,0,0,0,0,0
1576868610718.75,-36,50,19,0,0,0,0,0
1576868610750,-36,50,19,0,0,0,0,0
1576868610781.25,-36,50,19,0,0,0,0,0
1576868610812.5,-35,50,19,0,0,0,0,0
1576868610843.75,-36,50,19,0,0,0,0,0
1576868610875,-36,50,19,0,0,0,0,0
1576868610906.25,-36,50,19,0,0,0,0,0
1576868610937.5,-36,50,18,0,0,0,0,0
1576868610968.75,-36,50,19,0,0,0,0,0
1576868611000,-36,50,19,0,0,0,0,0
1576868611031.25,-36,50,19,0,0,0,0,0
1576868611062.5,-36,50,19,0,0,0,0,0
1576868611093.75,-35,50,19,0,0,0,0,0
1576868611125,-35,50,19,0,0,0,0,0
1576868611156.25,-35,50,19,0,0,0,0,0
1576868611187.5,-35,50,19,0,0,0,0,0
1576868611218.75,-36,50,19,0,0,0,0,0
1576868611250,-36,50,19,0,0,0,0,0
1576868611281.25,-35,50,19,0,0,0,0,0
1576868611312.5,-35,50,20,0,0,0,0,0
1576868611343.75,-37,50,18,0,0,0,0,0
1576868611375,-37,50,17,0,0,0,0,0
1576868611406.25,-39,52,14,0,0,0,0,0
1576868611437.5,-33,50,21,0,0,0,0,0
1576868611468.75,-33,50,26,0,0,0,0,0
1576868611500,-27,52,27,0,0,0,0,0
1576868611531.25,-30,52,27,0,0,0,0,0
1576868611562.5,-31,48,25,0,0,0,0,0
1576868611593.75,-31,50,25,0,0,0,0,0
1576868611625,-31,49,32,0,0,0,0,0
1576868611656.25,-27,48,33,0,0,0,0,0
1576868611687.5,-25,49,32,0,0,0,0,0
1576868611718.75,-27,49,34,0,0,0,0,0
1576868611750,-24,50,33,0,0,0,0,0
1576868611781.25,-24,50,35,0,0,0,0,0
1576868611812.5,-21,50,35,0,0,0,0,0
1576868611843.75,-17,50,36,0,0,0,0,0
1576868611875,-15,51,38,0,0,0,0,0
1576868611906.25,-17,52,39,0,0,0,0,0
1576868611937.5,-17,53,38,0,0,0,0,0
1576868611968.75,-18,54,35,0,0,0,0,0
1576868612000,-15,52,36,0,0,0,0,0
1576868612031.25,-14,49,39,0,0,0,0,0
1576868612062.5,-13,49,43,0,0,0,0,0
1576868612093.75,-14,49,46,0,0,0,0,0
1576868612125,-14,46,46,0,0,0,0,0
1576868612156.25,-16,43,38,0,0,0,0,0
1576868612187.5,-15,43,38,0,0,0,0,0
1576868612218.75,-14,48,46,0,0,0,0,0
1576868612250,-16,47,43,0,0,0,0,0
1576868612281.25,-17,44,38,0,0,0,0,0
1576868612312.5,-17,44,39,0,0,0,0,0
1576868612343.75,-18,44,41,0,0,0,0,0
1576868612375,-17,45,43,0,0,0,0,0
1576868612406.25,-18,46,44,0,0,0,0,0
1576868612437.5,-16,46,44,0,0,0,0,0
1576868612468.75,-15,46,45,0,0,0,0,0
1576868612500,-17,50,48,0,0,0,0,0
1576868612531.25,-16,48,49,0,0,0,0,0
1576868612562.5,-13,44,48,0,0,0,0,0
1576868612593.75,-13,41,45,0,0,0,0,0
1576868612625,-12,36,36,0,0,0,0,0
1576868612656.25,-13,36,34,0,0,0,0,0
1576868612687.5,-22,40,33,0,0,0,0,0
1576868612718.75,-24,43,34,0,0,0,0,0
1576868612750,-28,45,37,0,0,0,0,0
1576868612781.25,-28,45,38,0,0,0,0,0
1576868612812.5,-31,44,35,0,0,0,0,0
1576868612843.75,-35,42,31,0,0,0,0,0
1576868612875,-37,41,30,0,0,0,0,0
1576868612906.25,-38,45,32,0,0,0,0,0
1576868612937.5,-37,46,33,0,0,0,0,0
1576868612968.75,-35,49,34,0,0,0,0,0
1576868613000,-34,49,33,0,0,0,0,0
1576868613031.25,-30,49,30,0,0,0,0,0
1576868613062.5,-29,49,29,0,0,0,0,0
1576868613093.75,-28,51,29,0,0,0,0,0
1576868613125,-28,52,28,0,0,0,0,0
1576868613156.25,-32,52,33,0,0,0,0,0
1576868613187.5,-29,49,33,0,0,0,0,0
1576868613218.75,-25,45,33,0,0,0,0,0
1576868613250,-26,47,35,0,0,0,0,0
1576868613281.25,-25,48,37,0,0,0,0,0
1576868613312.5,-25,49,37,0,0,0,0,0
1576868613343.75,-25,48,36,0,0,0,0,0
1576868613375,-26,46,37,0,0,0,0,0
1576868613406.25,-27,45,37,0,0,0,0,0
1576868613437.5,-27,45,36,0,0,0,0,0
1576868613468.75,-28,45,37,0,0,0,0,0
1576868613500,-27,46,39,0,0,0,0,0
1576868613531.25,-26,47,38,0,0,0,0,0
1576868613562.5,-26,46,34,0,0,0,0,0
1576868613593.75,-26,45,35,0,0,0,0,0
1576868613625,-27,47,37,0,0,0,0,0
1576868613656.25,-24,47,39,0,0,0,0,0
1576868613687.5,-24,47,39,0,0,0,0,0
1576868613718.75,-24,46,40,0,0,0,0,0
1576868613750,-24,45,38,0,0,0,0,0
1576868613781.25,-25,46,37,0,0,0,0,0
1576868613812.5,-23,46,37,0,0,0,0,0
1576868613843.75,-25,46,39,0,0,0,0,0
1576868613875,-25,45,39,0,0,0,0,0
1576868613906.25,-26,44,39,0,0,0,0,0
1576868613937.5,-27,44,40,0,0,0,0,0
1576868613968.75,-25,44,40,0,0,0,0,0
1576868614000,-24,44,40,0,0,0,0,0
1576868614031.25,-26,44,40,0,0,0,0,0
1576868614062.5,-26,42,39,0,0,0,0,0
1576868614093.75,-27,41,39,0,0,0,0,0
1576868614125,-26,43,39,0,0,0,0,0
1576868614156.25,-26,44,39,0,0,0,0,0
1576868614187.5,-25,44,39,0,0,0,0,0
1576868614218.75,-26,44,39,0,0,0,0,0
1576868614250,-25,44,38,0,0,0,0,0
1576868614281.25,-25,44,38,0,0,0,0,0
1576868614312.5,-26,46,37,0,0,0,0,0
1576868614343.75,-25,47,37,0,0,0,0,0
1576868614375,-25,47,38,0,0,0,0,0
1576868614406.25,-27,47,37,0,0,0,0,0
1576868614437.5,-26,46,35,0,0,0,0,0
1576868614468.75,-26,47,36,0,0,0,0,0
1576868614500,-25,48,37,0,0,0,0,0
1576868614531.25,-24,48,36,0,0,0,0,0
1576868614562.5,-24,48,36,0,0,0,0,0
1576868614593.75,-24,48,36,0,0,0,0,0
1576868614625,-24,48,36,0,0,0,0,0
1576868614656.25,-24,48,36,0,0,0,0,0
1576868614687.5,-24,47,36,0,0,0,0,0
1576868614718.75,-26,48,36,0,0,0,0,0
1576868614750,-25,47,35,0,0,0,0,0
1576868614781.25,-25,48,36,0,0,0,0,0
1576868614812.5,-24,48,36,0,0,0,0,0
1576868614843.75,-25,48,36,0,0,0,0,0
1576868614875,-25,48,36,0,0,0,0,0
1576868614906.25,-24,48,36,0,0,0,0,0
1576868614937.5,-25,48,35,0,0,0,0,0
1576868614968.75,-24,48,35,0,0,0,0,0
1576868615000,-25,47,36,0,0,0,0,0
1576868615031.25,-25,47,35,0,0,0,0,0
1576868615062.5,-25,47,35,0,0,0,0,0
1576868615093.75,-25,48,36,0,0,0,0,0
1576868615125,-24,47,36,0,0,0,0,0
1576868615156.25,-25,48,36,0,0,0,0,0
1576868615187.5,-24,48,36,0,0,0,0,0
1576868615218.75,-25,48,36,0,0,0,0,0
1576868615250,-25,47,35,0,0,0,0,0
1576868615281.25,-25,48,36,0,0,0,0,0
1576868615312.5,-24,48,36,0,0,0,0,0
1576868615343.75,-24,48,35,0,0,0,0,0
1576868615375,-25,48,35,0,0,0,0,0
1576868615406.25,-26,47,36,0,0,0,0,0
1576868615437.5,-25,47,36,0,0,0,0,0
1576868615468.75,-26,48,35,0,0,0,0,0
1576868615500,-25,48,36,0,0,0,0,0
1576868615531.25,-25,48,36,0,0,0,0,0
1576868615562.5,-25,48,36,0,0,0,0,0
1576868615593.75,-25,48,36,0,0,0,0,0
1576868615625,-25,48,36,0,0,0,0,0
1576868615656.25,-25,48,35,0,0,0,0,0
1576868615687.5,-24,48,35,0,0,0,0,0
1576868615718.75,-25,48,36,0,0,0,0,0
1576868615750,-25,47,36,0,0,0,0,0
1576868615781.25,-25,48,36,0,0,0,0,0
1576868615812.5,-25,47,35,0,0,0,0,0
1576868615843.75,-25,47,36,0,0,0,0,0
1576868615875,-26,47,36,0,0,0,0,0
1576868615906.25,-26,47,36,0,0,0,0,0
1576868615937.5,-26,47,36,0,0,0,0,0
1576868615968.75,-25,47,36,0,0,0,0,0
1576868616000,-25,48,36,0,0,0,0,0
1576868616031.25,-25,48,35,0,0,0,0,0
1576868616062.5,-26,48,35,0,0,0,0,0
1576868616093.75,-25,48,35,0,0,0,0,0
1576868616125,-25,48,35,0,0,0,0,0
1576868616156.25,-25,48,35,0,0,0,0,0
1576868616187.5,-26,48,35,0,0,0,0,0
1576868616218.75,-25,48,35,0,0,0,0,0
1576868616250,-25,48,34,0,0,0,0,0
1576868616281.25,-25,48,35,0,0,0,0,0
1576868616312.5,-25,48,34,0,0,0,0,0
1576868616343.75,-25,48,34,0,0,0,0,0
1576868616375,-25,48,34,0,0,0,0,0
1576868616406.25,-25,48,35,0,0,0,0,0
1576868616437.5,-25,48,36,0,0,0,0,0
1576868616468.75,-26,48,35,0,0,0,0,0
1576868616500,-26,48,35,0,0,0,0,0
1576868616531.25,-26,47,35,0,0,0,0,0
1576868616562.5,-26,48,36,0,0,0,0,0
1576868616593.75,-25,47,35,0,0,0,0,0
1576868616625,-26,47,35,0,0,0,0,0
1576868616656.25,-25,47,36,0,0,0,0,0
1576868616687.5,-25,47,35,0,0,0,0,0
1576868616718.75,-25,47,35,0,0,0,0,0
1576868616750,-26,48,35,0,0,0,0,0
1576868616781.25,-25,47,35,0,0,0,0,0
1576868616812.5,-26,47,36,0,0,0,0,0
1576868616843.75,-26,47,36,0,0,0,0,0
1576868616875,-25,47,36,0,0,0,0,0
1576868616906.25,-25,48,36,0,0,0,0,0
1576868616937.5,-25,47,36,0,0,0,0,0
1576868616968.75,-27,47,36,0,0,0,0,0
1576868617000,-26,47,35,0,0,0,0,0
1576868617031.25,-26,47,35,0,0,0,0,0
1576868617062.5,-26,48,36,0,0,0,0,0
1576868617093.75,-26,47,36,0,0,0,0,0
1576868617125,-26,47,36,0,0,0,0,0
1576868617156.25,-25,47,36,0,0,0,0,0
1576868617187.5,-26,47,36,0,0,0,0,0
1576868617218.75,-26,47,36,0,0,0,0,0
1576868617250,-25,47,36,0,0,0,0,0
1576868617281.25,-26,48,36,0,0,0,0,0
1576868617312.5,-25,48,36,0,0,0,0,0
1576868617343.75,-25,48,36,0,0,0,0,0
1576868617375,-25,48,36,0,0,0,0,0
1576868617406.25,-25,47,36,0,0,0,0,0
1576868617437.5,-25,47,36,0,0,0,0,0
1576868617468.75,-26,47,36,0,0,0,0,0
1576868617500,-26,46,36,0,0,0,0,0
1576868617531.25,-25,46,36,0,0,0,0,0
1576868617562.5,-26,46,37,0,0,0,0,0
1576868617593.75,-26,46,37,0,0,0,0,0
1576868617625,-26,46,38,0,0,0,0,0
1576868617656.25,-26,46,37,0,0,0,0,0
1576868617687.5,-25,47,37,0,0,0,0,0
1576868617718.75,-25,47,37,0,0,0,0,0
1576868617750,-25,47,37,0,0,0,0,0
1576868617781.25,-26,46,36,0,0,0,0,0
1576868617812.5,-26,46,36,0,0,0,0,0
1576868617843.75,-25,47,36,0,0,0,0,0
1576868617875,-25,47,37,0,0,0,0,0
1576868617906.25,-25,47,36,0,0,0,0,0
1576868617937.5,-26,47,37,0,0,0,0,0
1576868617968.75,-25,47,36,0,0,0,0,0
1576868618000,-26,47,36,0,0,0,0,0
1576868618031.25,-26,47,36,0,0,0,0,0
1576868618062.5,-25,47,37,0,0,0,0,0
1576868618093.75,-25,47,36,0,0,0,0,0
1576868618125,-26,46,36,0,0,0,0,0
1576868618156.25,-27,46,35,0,0,0,0,0
1576868618187.5,-27,47,36,0,0,0,0,0
1576868618218.75,-26,47,36,0,0,0,0,0
1576868618250,-25,47,36,0,0,0,0,0
1576868618281.25,-25,47,36,0,0,0,0,0
1576868618312.5,-24,47,36,0,0,0,0,0
1576868618343.75,-25,47,36,0,0,0,0,0
1576868618375,-25,48,36,0,0,0,0,0
1576868618406.25,-25,48,36,0,0,0,0,0
1576868618437.5,-24,48,36,0,0,0,0,0
1576868618468.75,-24,48,36,0,0,0,0,0
1576868618500,-24,48,35,0,0,0,0,0
1576868618531.25,-24,48,36,0,0,0,0,0
1576868618562.5,-24,48,36,0,0,0,0,0
1576868618593.75,-24,48,36,0,0,0,0,0
1576868618625,-24,48,36,0,0,0,0,0
1576868618656.25,-24,48,36,0,0,0,0,0
1576868618687.5,-24,48,36,0,0,0,0,0
1576868618718.75,-24,48,36,0,0,0,0,0
1576868618750,-24,48,35,0,0,0,0,0
1576868618781.25,-24,48,35,0,0,0,0,0
1576868618812.5,-24,48,35,0,0,0,0,0
1576868618843.75,-24,48,36,0,0,0,0,0
1576868618875,-24,47,35,0,0,0,0,0
1576868618906.25,-26,48,37,0,0,0,0,0
1576868618937.5,-24,48,35,0,0,0,0,0
1576868618968.75,-22,49,35,0,0,0,0,0
1576868619000,-22,49,35,0,0,0,0,0
1576868619031.25,-23,48,35,0,0,0,0,0
1576868619062.5,-25,48,36,0,0,0,0,0
1576868619093.75,-24,48,36,0,0,0,0,0
1576868619125,-25,48,36,0,0,0,0,0
1576868619156.25,-23,48,36,0,0,0,0,0
1576868619187.5,-24,47,36,0,0,0,0,0
1576868619218.75,-25,48,36,0,0,0,0,0
1576868619250,-25,48,36,0,0,0,0,0
1576868619281.25,-24,48,36,0,0,0,0,0
1576868619312.5,-23,48,36,0,0,0,0,0
1576868619343.75,-24,48,37,0,0,0,0,0
1576868619375,-23,47,36,0,0,0,0,0
1576868619406.25,-24,47,36,0,0,0,0,0
1576868619437.5,-25,47,37,0,0,0,0,0
1576868619468.75,-25,46,37,0,0,0,0,0
1576868619500,-25,47,37,0,0,0,0,0
1576868619531.25,-25,46,37,0,0,0,0,0
1576868619562.5,-25,47,37,0,0,0,0,0
1576868619593.75,-25,47,36,0,0,0,0,0
1576868619625,-25,47,37,0,0,0,0,0
1576868619656.25,-25,47,36,0,0,0,0,0
1576868619687.5,-25,47,36,0,0,0,0,0
1576868619718.75,-25,47,37,0,0,0,0,0
1576868619750,-25,47,37,0,0,0,0,0
1576868619781.25,-25,47,37,0,0,0,0,0
1576868619812.5,-24,47,37,0,0,0,0,0
1576868619843.75,-24,47,37,0,0,0,0,0
1576868619875,-25,47,37,0,0,0,0,0
1576868619906.25,-25,47,37,0,0,0,0,0
1576868619937.5,-25,47,35,0,0,0,0,0
1576868619968.75,-26,48,35,0,0,0,0,0
1576868620000,-25,48,34,0,0,0,0,0
1576868620031.25,-25,49,34,0,0,0,0,0
1576868620062.5,-24,49,34,0,0,0,0,0
1576868620093.75,-24,49,34,0,0,0,0,0
1576868620125,-24,49,34,0,0,0,0,0
1576868620156.25,-25,49,34,0,0,0,0,0
1576868620187.5,-25,49,33,0,0,0,0,0
1576868620218.75,-24,49,33,0,0,0,0,0
1576868620250,-24,49,34,0,0,0,0,0
1576868620281.25,-24,49,34,0,0,0,0,0
1576868620312.5,-25,49,34,0,0,0,0,0
1576868620343.75,-25,49,34,0,0,0,0,0
1576868620375,-25,49,34,0,0,0,0,0
1576868620406.25,-24,49,35,0,0,0,0,0
1576868620437.5,-24,49,35,0,0,0,0,0
1576868620468.75,-25,49,34,0,0,0,0,0
1576868620500,-25,49,34,0,0,0,0,0
1576868620531.25,-25,49,34,0,0,0,0,0
1576868620562.5,-24,49,34,0,0,0,0,0
1576868620593.75,-24,49,34,0,0,0,0,0
1576868620625,-24,50,34,0,0,0,0,0
1576868620656.25,-24,50,34,0,0,0,0,0
1576868620687.5,-25,50,33,0,0,0,0,0
1576868620718.75,-25,49,33,0,0,0,0,0
1576868620750,-24,50,33,0,0,0,0,0
1576868620781.25,-23,50,33,0,0,0,0,0
1576868620812.5,-24,50,33,0,0,0,0,0
1576868620843.75,-24,50,33,0,0,0,0,0
1576868620875,-23,50,33,0,0,0,0,0
1576868620906.25,-24,50,33,0,0,0,0,0
1576868620937.5,-24,50,33,0,0,0,0,0
1576868620968.75,-24,50,33,0,0,0,0,0
1576868621000,-24,50,34,0,0,0,0,0
1576868621031.25,-24,50,33,0,0,0,0,0
1576868621062.5,-24,50,33,0,0,0,0,0
1576868621093.75,-23,50,33,0,0,0,0,0
1576868621125,-24,50,34,0,0,0,0,0
1576868621156.25,-24,50,33,0,0,0,0,0
1576868621187.5,-24,50,33,0,0,0,0,0
1576868621218.75,-23,50,33,0,0,0,0,0
1576868621250,-23,50,34,0,0,0,0,0
1576868621281.25,-23,51,34,0,0,0,0,0
1576868621312.5,-23,51,34,0,0,0,0,0
1576868621343.75,-23,51,34,0,0,0,0,0
1576868621375,-24,52,35,0,0,0,0,0
1576868621406.25,-24,54,39,0,0,0,0,0
1576868621437.5,-24,58,41,0,0,0,0,0
1576868621468.75,-24,58,37,0,0,0,0,0
1576868621500,-39,61,29,0,0,0,0,0
1576868621531.25,-45,61,32,0,0,0,0,0
1576868621562.5,-54,62,30,0,0,0,0,0
1576868621593.75,-61,61,35,0,0,0,0,0
1576868621625,-60,52,36,0,0,0,0,0
1576868621656.25,-63,46,33,0,0,0,0,0
1576868621687.5,-63,36,31,0,0,0,0,0
1576868621718.75,-60,25,26,0,0,0,0,0
1576868621750,-62,15,22,0,0,0,0,0
1576868621781.25,-55,2,19,0,0,0,0,0
1576868621812.5,-57,-3,15,0,0,0,0,0
1576868621843.75,-51,-11,10,0,0,0,0,0
1576868621875,-46,-13,8,0,0,0,0,0
1576868621906.25,-41,-18,8,0,0,0,0,0
1576868621937.5,-38,-19,9,0,0,0,0,0
1576868621968.75,-36,-20,12,0,0,0,0,0
1576868622000,-29,-23,19,0,0,0,0,0
1576868622031.25,-42,-22,10,0,0,0,0,0
1576868622062.5,-33,-23,14,0,0,0,0,0
1576868622093.75,-32,-25,22,0,0,0,0,0
1576868622125,-40,-30,23,0,0,0,0,0
1576868622156.25,-40,-32,26,0,0,0,0,0
1576868622187.5,-46,-34,32,0,0,0,0,0
1576868622218.75,-43,-34,38,0,0,0,0,0
1576868622250,-40,-35,37,0,0,0,0,0
1576868622281.25,-41,-35,33,0,0,0,0,0
1576868622312.5,-44,-33,31,0,0,0,0,0
1576868622343.75,-46,-31,30,0,0,0,0,0
1576868622375,-46,-31,25,0,0,0,0,0
1576868622406.25,-46,-31,23,0,0,0,0,0
1576868622437.5,-40,-31,29,0,0,0,0,0
1576868622468.75,-38,-31,34,0,0,0,0,0
1576868622500,-39,-32,38,0,0,0,0,0
1576868622531.25,-38,-33,39,0,0,0,0,0
1576868622562.5,-37,-33,41,0,0,0,0,0
1576868622593.75,-37,-33,40,0,0,0,0,0
1576868622625,-37,-33,40,0,0,0,0,0
1576868622656.25,-37,-32,39,0,0,0,0,0
1576868622687.5,-38,-31,38,0,0,0,0,0
1576868622718.75,-47,-30,37,0,0,0,0,0
1576868622750,-52,-24,39,0,0,0,0,0
1576868622781.25,-48,-22,35,0,0,0,0,0
1576868622812.5,-48,-20,34,0,0,0,0,0
1576868622843.75,-46,-18,29,0,0,0,0,0
1576868622875,-49,-17,28,0,0,0,0,0
1576868622906.25,-58,-16,31,0,0,0,0,0
1576868622937.5,-52,-15,29,0,0,0,0,0
1576868622968.75,-57,-15,25,0,0,0,0,0
1576868623000,-58,-14,28,0,0,0,0,0
1576868623031.25,-55,-14,33,0,0,0,0,0
1576868623062.5,-58,-14,31,0,0,0,0,0
1576868623093.75,-61,-13,28,0,0,0,0,0
1576868623125,-64,-12,22,0,0,0,0,0
1576868623156.25,-61,-14,23,0,0,0,0,0
1576868623187.5,-53,-15,21,0,0,0,0,0
1576868623218.75,-55,-13,19,0,0,0,0,0
1576868623250,-65,-10,17,0,0,0,0,0
1576868623281.25,-62,-10,21,0,0,0,0,0
1576868623312.5,-58,-11,20,0,0,0,0,0
1576868623343.75,-63,-11,12,0,0,0,0,0
1576868623375,-61,-11,10,0,0,0,0,0
1576868623406.25,-63,-12,5,0,0,0,0,0
1576868623437.5,-59,-11,7,0,0,0,0,0
1576868623468.75,-57,-6,5,0,0,0,0,0
1576868623500,-65,-3,0,0,0,0,0,0
1576868623531.25,-68,-5,-6,0,0,0,0,0
1576868623562.5,-65,-6,-4,0,0,0,0,0
1576868623593.75,-62,-7,0,0,0,0,0,0
1576868623625,-60,-8,-1,0,0,0,0,0
1576868623656.25,-63,-9,-7,0,0,0,0,0
1576868623687.5,-63,-10,-7,0,0,0,0,0
1576868623718.75,-63,-10,-10,0,0,0,0,0
1576868623750,-61,-9,-8,0,0,0,0,0
1576868623781.25,-63,-8,-7,0,0,0,0,0
1576868623812.5,-64,-8,-7,0,0,0,0,0
1576868623843.75,-62,-9,-9,0,0,0,0,0
1576868623875,-62,-11,-13,0,0,0,0,0
1576868623906.25,-60,-11,-13,0,0,0,0,0
1576868623937.5,-60,-12,-16,0,0,0,0,0
1576868623968.75,-61,-12,-18,0,0,0,0,0
1576868624000,-59,-11,-21,0,0,0,0,0
1576868624031.25,-58,-11,-22,0,0,0,0,0
1576868624062.5,-59,-13,-23,0,0,0,0,0
1576868624093.75,-57,-13,-20,0,0,0,0,0
1576868624125,-56,-14,-18,0,0,0,0,0
1576868624156.25,-56,-14,-20,0,0,0,0,0
1576868624187.5,-53,-14,-21,0,0,0,0,0
1576868624218.75,-54,-16,-26,0,0,0,0,0
1576868624250,-54,-16,-28,0,0,0,0,0
1576868624281.25,-56,-13,-31,0,0,0,0,0
1576868624312.5,-55,-12,-30,0,0,0,0,0
1576868624343.75,-49,-11,-30,0,0,0,0,0
1576868624375,-51,-12,-36,0,0,0,0,0
1576868624406.25,-50,-12,-42,0,0,0,0,0
1576868624437.5,-49,-11,-40,0,0,0,0,0
1576868624468.75,-46,-9,-37,0,0,0,0,0
1576868624500,-44,-9,-37,0,0,0,0,0
1576868624531.25,-46,-9,-44,0,0,0,0,0
1576868624562.5,-45,-9,-47,0,0,0,0,0
1576868624593.75,-45,-9,-46,0,0,0,0,0
1576868624625,-45,-10,-46,0,0,0,0,0
1576868624656.25,-44,-11,-47,0,0,0,0,0
1576868624687.5,-44,-10,-48,0,0,0,0,0
1576868624718.75,-43,-9,-48,0,0,0,0,0
1576868624750,-44,-8,-50,0,0,0,0,0
1576868624781.25,-43,-7,-50,0,0,0,0,0
1576868624812.5,-42,-7,-48,0,0,0,0,0
1576868624843.75,-41,-7,-48,0,0,0,0,0
1576868624875,-40,-8,-48,0,0,0,0,0
1576868624906.25,-40,-8,-48,0,0,0,0,0
1576868624937.5,-41,-7,-51,0,0,0,0,0
1576868624968.75,-40,-6,-49,0,0,0,0,0
1576868625000,-41,-6,-49,0,0,0,0,0
1576868625031.25,-40,-7,-48,0,0,0,0,0
1576868625062.5,-40,-7,-48,0,0,0,0,0
1576868625093.75,-41,-7,-50,0,0,0,0,0
1576868625125,-42,-7,-51,0,0,0,0,0
1576868625156.25,-43,-8,-51,0,0,0,0,0
1576868625187.5,-44,-8,-50,0,0,0,0,0
1576868625218.75,-44,-9,-50,0,0,0,0,0
1576868625250,-45,-9,-49,0,0,0,0,0
1576868625281.25,-45,-9,-48,0,0,0,0,0
1576868625312.5,-45,-9,-48,0,0,0,0,0
1576868625343.75,-45,-11,-46,0,0,0,0,0
1576868625375,-46,-12,-47,0,0,0,0,0
1576868625406.25,-46,-12,-46,0,0,0,0,0
1576868625437.5,-46,-13,-46,0,0,0,0,0
1576868625468.75,-46,-12,-45,0,0,0,0,0
1576868625500,-44,-13,-42,0,0,0,0,0
1576868625531.25,-44,-13,-41,0,0,0,0,0
1576868625562.5,-45,-12,-42,0,0,0,0,0
1576868625593.75,-45,-11,-42,0,0,0,0,0
1576868625625,-45,-14,-42,0,0,0,0,0
1576868625656.25,-44,-15,-41,0,0,0,0,0
1576868625687.5,-44,-15,-42,0,0,0,0,0
1576868625718.75,-44,-14,-43,0,0,0,0,0
1576868625750,-43,-12,-42,0,0,0,0,0
1576868625781.25,-42,-12,-40,0,0,0,0,0
1576868625812.5,-43,-11,-41,0,0,0,0,0
1576868625843.75,-43,-7,-40,0,0,0,0,0
1576868625875,-44,-5,-41,0,0,0,0,0
1576868625906.25,-45,-5,-43,0,0,0,0,0
1576868625937.5,-47,-5,-43,0,0,0,0,0
1576868625968.75,-47,-7,-41,0,0,0,0,0
1576868626000,-47,-8,-41,0,0,0,0,0
1576868626031.25,-47,-9,-39,0,0,0,0,0
1576868626062.5,-47,-10,-39,0,0,0,0,0
1576868626093.75,-47,-10,-41,0,0,0,0,0
1576868626125,-49,-11,-42,0,0,0,0,0
1576868626156.25,-49,-11,-43,0,0,0,0,0
1576868626187.5,-49,-12,-44,0,0,0,0,0
1576868626218.75,-48,-13,-43,0,0,0,0,0
1576868626250,-47,-14,-41,0,0,0,0,0
1576868626281.25,-47,-15,-40,0,0,0,0,0
1576868626312.5,-45,-17,-39,0,0,0,0,0
1576868626343.75,-44,-17,-39,0,0,0,0,0
1576868626375,-44,-18,-39,0,0,0,0,0
1576868626406.25,-45,-18,-39,0,0,0,0,0
1576868626437.5,-45,-19,-40,0,0,0,0,0
1576868626468.75,-45,-19,-40,0,0,0,0,0
1576868626500,-43,-21,-40,0,0,0,0,0
1576868626531.25,-43,-20,-40,0,0,0,0,0
1576868626562.5,-43,-19,-41,0,0,0,0,0
1576868626593.75,-43,-17,-42,0,0,0,0,0
1576868626625,-44,-16,-44,0,0,0,0,0
1576868626656.25,-45,-14,-46,0,0,0,0,0
1576868626687.5,-45,-12,-46,0,0,0,0,0
1576868626718.75,-45,-8,-50,0,0,0,0,0
1576868626750,-44,-6,-50,0,0,0,0,0
1576868626781.25,-45,-3,-48,0,0,0,0,0
1576868626812.5,-45,-4,-44,0,0,0,0,0
1576868626843.75,-44,-7,-41,0,0,0,0,0
1576868626875,-45,-8,-44,0,0,0,0,0
1576868626906.25,-44,-5,-49,0,0,0,0,0
1576868626937.5,-42,-4,-48,0,0,0,0,0
1576868626968.75,-42,-7,-46,0,0,0,0,0
1576868627000,-43,-10,-43,0,0,0,0,0
1576868627031.25,-44,-11,-44,0,0,0,0,0
1576868627062.5,-49,-8,-49,0,0,0,0,0
1576868627093.75,-50,-6,-49,0,0,0,0,0
1576868627125,-50,-6,-43,0,0,0,0,0
1576868627156.25,-51,-8,-41,0,0,0,0,0
1576868627187.5,-50,-11,-37,0,0,0,0,0
1576868627218.75,-52,-12,-34,0,0,0,0,0
1576868627250,-57,-12,-27,0,0,0,0,0
1576868627281.25,-57,-12,-28,0,0,0,0,0
1576868627312.5,-59,-14,-35,0,0,0,0,0
1576868627343.75,-60,-13,-33,0,0,0,0,0
1576868627375,-57,-12,-27,0,0,0,0,0
1576868627406.25,-51,-9,-24,0,0,0,0,0
1576868627437.5,-50,-10,-27,0,0,0,0,0
1576868627468.75,-53,-13,-29,0,0,0,0,0
1576868627500,-54,-15,-27,0,0,0,0,0
1576868627531.25,-52,-18,-21,0,0,0,0,0
1576868627562.5,-53,-17,-21,0,0,0,0,0
1576868627593.75,-61,-15,-27,0,0,0,0,0
1576868627625,-57,-12,-27,0,0,0,0,0
1576868627656.25,-54,-10,-31,0,0,0,0,0
1576868627687.5,-52,-11,-32,0,0,0,0,0
1576868627718.75,-51,-13,-33,0,0,0,0,0
1576868627750,-51,-13,-33,0,0,0,0,0
1576868627781.25,-54,-14,-31,0,0,0,0,0
1576868627812.5,-55,-14,-31,0,0,0,0,0
1576868627843.75,-53,-14,-30,0,0,0,0,0
1576868627875,-50,-14,-33,0,0,0,0,0
1576868627906.25,-50,-15,-36,0,0,0,0,0
1576868627937.5,-51,-14,-37,0,0,0,0,0
1576868627968.75,-51,-14,-36,0,0,0,0,0
1576868628000,-49,-16,-35,0,0,0,0,0
1576868628031.25,-48,-17,-35,0,0,0,0,0
1576868628062.5,-49,-17,-37,0,0,0,0,0
1576868628093.75,-48,-18,-37,0,0,0,0,0
1576868628125,-44,-18,-38,0,0,0,0,0
1576868628156.25,-44,-19,-41,0,0,0,0,0
1576868628187.5,-42,-20,-45,0,0,0,0,0
1576868628218.75,-41,-20,-44,0,0,0,0,0
1576868628250,-39,-21,-44,0,0,0,0,0
1576868628281.25,-40,-22,-45,0,0,0,0,0
1576868628312.5,-41,-22,-46,0,0,0,0,0
1576868628343.75,-42,-23,-45,0,0,0,0,0
1576868628375,-41,-23,-44,0,0,0,0,0
1576868628406.25,-40,-24,-42,0,0,0,0,0
1576868628437.5,-40,-23,-42,0,0,0,0,0
1576868628468.75,-40,-23,-48,0,0,0,0,0
1576868628500,-39,-24,-50,0,0,0,0,0
1576868628531.25,-39,-23,-49,0,0,0,0,0
1576868628562.5,-37,-23,-46,0,0,0,0,0
1576868628593.75,-36,-23,-45,0,0,0,0,0
1576868628625,-38,-23,-42,0,0,0,0,0
1576868628656.25,-39,-23,-42,0,0,0,0,0
1576868628687.5,-40,-24,-46,0,0,0,0,0
1576868628718.75,-41,-25,-46,0,0,0,0,0
1576868628750,-43,-28,-44,0,0,0,0,0
1576868628781.25,-46,-30,-44,0,0,0,0,0
1576868628812.5,-47,-29,-40,0,0,0,0,0
1576868628843.75,-45,-28,-37,0,0,0,0,0
1576868628875,-44,-33,-38,0,0,0,0,0
1576868628906.25,-47,-36,-40,0,0,0,0,0
1576868628937.5,-52,-37,-46,0,0,0,0,0
1576868628968.75,-42,-35,-31,0,0,0,0,0
1576868629000,-42,-36,-27,0,0,0,0,0
1576868629031.25,-47,-39,-32,0,0,0,0,0
1576868629062.5,-44,-39,-33,0,0,0,0,0
1576868629093.75,-42,-36,-28,0,0,0,0,0
1576868629125,-38,-34,-26,0,0,0,0,0
1576868629156.25,-42,-35,-28,0,0,0,0,0
1576868629187.5,-41,-35,-30,0,0,0,0,0
1576868629218.75,-37,-37,-31,0,0,0,0,0
1576868629250,-36,-36,-28,0,0,0,0,0
1576868629281.25,-37,-38,-27,0,0,0,0,0
1576868629312.5,-38,-40,-25,0,0,0,0,0
1576868629343.75,-41,-43,-21,0,0,0,0,0
1576868629375,-40,-45,-20,0,0,0,0,0
1576868629406.25,-41,-45,-21,0,0,0,0,0
1576868629437.5,-43,-46,-25,0,0,0,0,0
1576868629468.75,-41,-48,-24,0,0,0,0,0
1576868629500,-38,-45,-13,0,0,0,0,0
1576868629531.25,-37,-46,-12,0,0,0,0,0
1576868629562.5,-38,-46,-14,0,0,0,0,0
1576868629593.75,-39,-45,-14,0,0,0,0,0
1576868629625,-40,-45,-15,0,0,0,0,0
1576868629656.25,-40,-45,-18,0,0,0,0,0
1576868629687.5,-40,-47,-20,0,0,0,0,0
1576868629718.75,-39,-47,-18,0,0,0,0,0
1576868629750,-39,-45,-12,0,0,0,0,0
1576868629781.25,-39,-45,-13,0,0,0,0,0
1576868629812.5,-40,-45,-14,0,0,0,0,0
1576868629843.75,-40,-46,-15,0,0,0,0,0
1576868629875,-39,-46,-13,0,0,0,0,0
1576868629906.25,-39,-47,-14,0,0,0,0,0
1576868629937.5,-38,-47,-14,0,0,0,0,0
1576868629968.75,-38,-47,-12,0,0,0,0,0
1576868630000,-38,-47,-11,0,0,0,0,0
1576868630031.25,-37,-46,-10,0,0,0,0,0
1576868630062.5,-37,-46,-11,0,0,0,0,0
1576868630093.75,-36,-44,-13,0,0,0,0,0
1576868630125,-34,-42,-14,0,0,0,0,0
1576868630156.25,-32,-41,-13,0,0,0,0,0
1576868630187.5,-32,-41,-10,0,0,0,0,0
1576868630218.75,-32,-41,-9,0,0,0,0,0
1576868630250,-34,-42,-10,0,0,0,0,0
1576868630281.25,-33,-42,-12,0,0,0,0,0
1576868630312.5,-35,-43,-11,0,0,0,0,0
1576868630343.75,-35,-40,-9,0,0,0,0,0
1576868630375,-38,-35,-10,0,0,0,0,0
1576868630406.25,-38,-33,-13,0,0,0,0,0
1576868630437.5,-36,-32,-13,0,0,0,0,0
1576868630468.75,-36,-34,-12,0,0,0,0,0
1576868630500,-36,-36,-7,0,0,0,0,0
1576868630531.25,-39,-35,-3,0,0,0,0,0
1576868630562.5,-45,-35,4,0,0,0,0,0
1576868630593.75,-50,-33,11,0,0,0,0,0
1576868630625,-53,-31,14,0,0,0,0,0
1576868630656.25,-58,-34,9,0,0,0,0,0
1576868630687.5,-64,-31,8,0,0,0,0,0
1576868630718.75,-71,-16,11,0,0,0,0,0
1576868630750,-74,-15,4,0,0,0,0,0
1576868630781.25,-79,-18,-6,0,0,0,0,0
1576868630812.5,-81,-17,-8,0,0,0,0,0
1576868630843.75,-77,-13,-6,0,0,0,0,0
1576868630875,-77,-11,-7,0,0,0,0,0
1576868630906.25,-69,-9,-6,0,0,0,0,0
1576868630937.5,-66,-9,-5,0,0,0,0,0
1576868630968.75,-65,-9,-8,0,0,0,0,0
1576868631000,-66,-6,-9,0,0,0,0,0
1576868631031.25,-67,-5,-10,0,0,0,0,0
1576868631062.5,-67,0,-9,0,0,0,0,0
1576868631093.75,-66,1,-9,0,0,0,0,0
1576868631125,-68,2,-10,0,0,0,0,0
1576868631156.25,-69,3,-10,0,0,0,0,0
1576868631187.5,-67,6,-10,0,0,0,0,0
1576868631218.75,-66,7,-11,0,0,0,0,0
1576868631250,-67,8,-13,0,0,0,0,0
1576868631281.25,-66,8,-14,0,0,0,0,0
1576868631312.5,-65,8,-13,0,0,0,0,0
1576868631343.75,-62,8,-13,0,0,0,0,0
1576868631375,-59,9,-12,0,0,0,0,0
1576868631406.25,-55,9,-11,0,0,0,0,0
1576868631437.5,-54,9,-10,0,0,0,0,0
1576868631468.75,-54,11,-10,0,0,0,0,0
1576868631500,-55,11,-11,0,0,0,0,0
1576868631531.25,-59,12,-15,0,0,0,0,0
1576868631562.5,-63,11,-17,0,0,0,0,0
1576868631593.75,-67,10,-19,0,0,0,0,0
1576868631625,-66,10,-19,0,0,0,0,0
1576868631656.25,-65,8,-18,0,0,0,0,0
1576868631687.5,-64,6,-18,0,0,0,0,0
1576868631718.75,-62,2,-20,0,0,0,0,0
1576868631750,-62,1,-21,0,0,0,0,0
1576868631781.25,-63,1,-21,0,0,0,0,0
1576868631812.5,-64,1,-21,0,0,0,0,0
1576868631843.75,-64,2,-21,0,0,0,0,0
1576868631875,-66,2,-21,0,0,0,0,0
1576868631906.25,-67,2,-20,0,0,0,0,0
1576868631937.5,-64,1,-16,0,0,0,0,0
1576868631968.75,-64,0,-14,0,0,0,0,0
1576868632000,-62,-1,-11,0,0,0,0,0
1576868632031.25,-62,-1,-11,0,0,0,0,0
1576868632062.5,-61,-2,-11,0,0,0,0,0
1576868632093.75,-62,-2,-11,0,0,0,0,0
1576868632125,-63,-3,-12,0,0,0,0,0
1576868632156.25,-65,-4,-13,0,0,0,0,0
1576868632187.5,-60,-4,-13,0,0,0,0,0
1576868632218.75,-57,-6,-19,0,0,0,0,0
1576868632250,-60,-6,-25,0,0,0,0,0
1576868632281.25,-63,-6,-28,0,0,0,0,0
1576868632312.5,-57,-7,-25,0,0,0,0,0
1576868632343.75,-49,-10,-25,0,0,0,0,0
1576868632375,-53,-11,-30,0,0,0,0,0
1576868632406.25,-59,-14,-35,0,0,0,0,0
1576868632437.5,-58,-14,-33,0,0,0,0,0
1576868632468.75,-62,-14,-33,0,0,0,0,0
1576868632500,-62,-13,-36,0,0,0,0,0
1576868632531.25,-63,2,-38,0,0,0,0,0
1576868632562.5,-46,8,-23,0,0,0,0,0
1576868632593.75,-43,7,-19,0,0,0,0,0
1576868632625,-50,4,-25,0,0,0,0,0
1576868632656.25,-52,3,-30,0,0,0,0,0
1576868632687.5,-53,4,-33,0,0,0,0,0
1576868632718.75,-51,6,-34,0,0,0,0,0
1576868632750,-54,7,-37,0,0,0,0,0
1576868632781.25,-55,8,-39,0,0,0,0,0
1576868632812.5,-56,10,-37,0,0,0,0,0
1576868632843.75,-55,9,-34,0,0,0,0,0
1576868632875,-52,7,-30,0,0,0,0,0
1576868632906.25,-52,5,-29,0,0,0,0,0
1576868632937.5,-54,1,-32,0,0,0,0,0
1576868632968.75,-56,-2,-32,0,0,0,0,0
1576868633000,-55,-3,-31,0,0,0,0,0
1576868633031.25,-54,-5,-27,0,0,0,0,0
1576868633062.5,-54,-5,-27,0,0,0,0,0
1576868633093.75,-53,-6,-33,0,0,0,0,0
1576868633125,-52,-7,-37,0,0,0,0,0
1576868633156.25,-53,-8,-37,0,0,0,0,0
1576868633187.5,-53,-9,-37,0,0,0,0,0
1576868633218.75,-48,-10,-36,0,0,0,0,0
1576868633250,-47,-12,-38,0,0,0,0,0
1576868633281.25,-48,-14,-40,0,0,0,0,0
1576868633312.5,-48,-14,-40,0,0,0,0,0
1576868633343.75,-48,-14,-38,0,0,0,0,0
1576868633375,-51,-18,-38,0,0,0,0,0
1576868633406.25,-54,-15,-40,0,0,0,0,0
1576868633437.5,-59,-8,-47,0,0,0,0,0
1576868633468.75,-60,-3,-49,0,0,0,0,0
1576868633500,-56,-1,-43,0,0,0,0,0
1576868633531.25,-55,-2,-39,0,0,0,0,0
1576868633562.5,-56,-5,-35,0,0,0,0,0
1576868633593.75,-53,-4,-32,0,0,0,0,0
1576868633625,-55,-2,-28,0,0,0,0,0
1576868633656.25,-55,-1,-28,0,0,0,0,0
1576868633687.5,-57,-2,-31,0,0,0,0,0
1576868633718.75,-56,-3,-31,0,0,0,0,0
1576868633750,-53,-4,-27,0,0,0,0,0
1576868633781.25,-50,-4,-24,0,0,0,0,0
1576868633812.5,-49,-6,-23,0,0,0,0,0
1576868633843.75,-48,-8,-22,0,0,0,0,0
1576868633875,-48,-9,-22,0,0,0,0,0
1576868633906.25,-49,-10,-24,0,0,0,0,0
1576868633937.5,-53,-9,-26,0,0,0,0,0
1576868633968.75,-58,-5,-30,0,0,0,0,0
1576868634000,-60,-3,-31,0,0,0,0,0
1576868634031.25,-61,-2,-30,0,0,0,0,0
1576868634062.5,-66,-1,-32,0,0,0,0,0
1576868634093.75,-63,5,-27,0,0,0,0,0
1576868634125,-64,6,-23,0,0,0,0,0
1576868634156.25,-65,4,-22,0,0,0,0,0
1576868634187.5,-65,4,-22,0,0,0,0,0
1576868634218.75,-64,5,-20,0,0,0,0,0
1576868634250,-61,7,-18,0,0,0,0,0
1576868634281.25,-60,7,-17,0,0,0,0,0
1576868634312.5,-61,6,-18,0,0,0,0,0
1576868634343.75,-61,5,-18,0,0,0,0,0
1576868634375,-61,3,-17,0,0,0,0,0
1576868634406.25,-60,2,-16,0,0,0,0,0
1576868634437.5,-58,-2,-14,0,0,0,0,0
1576868634468.75,-58,-3,-14,0,0,0,0,0
1576868634500,-57,-5,-14,0,0,0,0,0
1576868634531.25,-59,-6,-14,0,0,0,0,0
1576868634562.5,-58,-6,-11,0,0,0,0,0
1576868634593.75,-58,-8,-11,0,0,0,0,0
1576868634625,-60,-11,-13,0,0,0,0,0
1576868634656.25,-61,-11,-12,0,0,0,0,0
1576868634687.5,-60,-11,-11,0,0,0,0,0
1576868634718.75,-58,-11,-12,0,0,0,0,0
1576868634750,-57,-12,-12,0,0,0,0,0
1576868634781.25,-60,-9,-8,0,0,0,0,0
1576868634812.5,-60,-4,-6,0,0,0,0,0
1576868634843.75,-67,7,-7,0,0,0,0,0
1576868634875,-72,15,-7,0,0,0,0,0
1576868634906.25,-65,17,0,0,0,0,0,0
1576868634937.5,-61,21,4,0,0,0,0,0
1576868634968.75,-55,25,11,0,0,0,0,0
1576868635000,-48,31,14,0,0,0,0,0
1576868635031.25,-46,37,17,0,0,0,0,0
1576868635062.5,-56,47,11,0,0,0,0,0
1576868635093.75,-58,50,9,0,0,0,0,0
1576868635125,-53,51,11,0,0,0,0,0
1576868635156.25,-46,50,14,0,0,0,0,0
1576868635187.5,-39,43,17,0,0,0,0,0
1576868635218.75,-45,47,17,0,0,0,0,0
1576868635250,-62,55,27,0,0,0,0,0
1576868635281.25,-45,55,34,0,0,0,0,0
1576868635312.5,-53,53,21,0,0,0,0,0
1576868635343.75,-57,49,12,0,0,0,0,0
1576868635375,-42,42,12,0,0,0,0,0
1576868635406.25,-36,38,13,0,0,0,0,0
1576868635437.5,-37,36,11,0,0,0,0,0
1576868635468.75,-45,50,11,0,0,0,0,0
1576868635500,-45,47,16,0,0,0,0,0
1576868635531.25,-40,42,20,0,0,0,0,0
1576868635562.5,-42,39,16,0,0,0,0,0
1576868635593.75,-48,41,8,0,0,0,0,0
1576868635625,-52,44,7,0,0,0,0,0
1576868635656.25,-39,48,12,0,0,0,0,0
1576868635687.5,-37,49,13,0,0,0,0,0
1576868635718.75,-35,43,16,0,0,0,0,0
1576868635750,-34,41,17,0,0,0,0,0
1576868635781.25,-35,42,26,0,0,0,0,0
1576868635812.5,-28,43,34,0,0,0,0,0
1576868635843.75,-32,43,41,0,0,0,0,0
1576868635875,-35,43,41,0,0,0,0,0
1576868635906.25,-35,43,39,0,0,0,0,0
1576868635937.5,-27,46,42,0,0,0,0,0
1576868635968.75,-26,48,40,0,0,0,0,0
1576868636000,-22,50,39,0,0,0,0,0
1576868636031.25,-20,51,38,0,0,0,0,0
1576868636062.5,-20,49,31,0,0,0,0,0
1576868636093.75,-17,48,25,0,0,0,0,0
1576868636125,-14,52,32,0,0,0,0,0
1576868636156.25,-8,54,38,0,0,0,0,0
1576868636187.5,-13,54,37,0,0,0,0,0
1576868636218.75,-21,57,35,0,0,0,0,0
1576868636250,-20,59,36,0,0,0,0,0
1576868636281.25,-15,56,34,0,0,0,0,0
1576868636312.5,-14,58,33,0,0,0,0,0
1576868636343.75,-14,58,31,0,0,0,0,0
1576868636375,-16,58,30,0,0,0,0,0
1576868636406.25,-14,58,31,0,0,0,0,0
1576868636437.5,-14,59,31,0,0,0,0,0
1576868636468.75,-13,58,31,0,0,0,0,0
1576868636500,-12,59,31,0,0,0,0,0
1576868636531.25,-10,58,29,0,0,0,0,0
1576868636562.5,-9,59,29,0,0,0,0,0
1576868636593.75,-7,62,30,0,0,0,0,0
1576868636625,-10,60,30,0,0,0,0,0
1576868636656.25,-10,59,32,0,0,0,0,0
1576868636687.5,-10,55,28,0,0,0,0,0
1576868636718.75,-11,55,25,0,0,0,0,0
1576868636750,-12,54,25,0,0,0,0,0
1576868636781.25,-12,54,25,0,0,0,0,0
1576868636812.5,-13,57,26,0,0,0,0,0
1576868636843.75,-10,58,27,0,0,0,0,0
1576868636875,-8,61,31,0,0,0,0,0
1576868636906.25,-4,60,30,0,0,0,0,0
1576868636937.5,-1,59,28,0,0,0,0,0
1576868636968.75,0,59,29,0,0,0,0,0
1576868637000,-1,58,26,0,0,0,0,0
1576868637031.25,-2,56,22,0,0,0,0,0
1576868637062.5,0,56,22,0,0,0,0,0
1576868637093.75,4,58,21,0,0,0,0,0
1576868637125,2,60,20,0,0,0,0,0
1576868637156.25,-2,63,20,0,0,0,0,0
1576868637187.5,1,65,17,0,0,0,0,0
1576868637218.75,7,62,23,0,0,0,0,0
1576868637250,5,61,22,0,0,0,0,0
1576868637281.25,1,61,23,0,0,0,0,0
1576868637312.5,0,61,24,0,0,0,0,0
1576868637343.75,9,65,33,0,0,0,0,0
1576868637375,11,64,32,0,0,0,0,0
1576868637406.25,8,57,24,0,0,0,0,0
1576868637437.5,10,50,18,0,0,0,0,0
1576868637468.75,15,51,16,0,0,0,0,0
1576868637500,22,54,17,0,0,0,0,0
1576868637531.25,17,55,19,0,0,0,0,0
1576868637562.5,15,58,23,0,0,0,0,0
1576868637593.75,18,59,29,0,0,0,0,0
1576868637625,25,55,30,0,0,0,0,0
1576868637656.25,24,54,26,0,0,0,0,0
1576868637687.5,23,54,23,0,0,0,0,0
1576868637718.75,19,54,24,0,0,0,0,0
1576868637750,21,54,22,0,0,0,0,0
1576868637781.25,22,55,19,0,0,0,0,0
1576868637812.5,22,56,15,0,0,0,0,0
1576868637843.75,17,58,17,0,0,0,0,0
1576868637875,23,56,17,0,0,0,0,0
1576868637906.25,31,52,19,0,0,0,0,0
1576868637937.5,25,52,23,0,0,0,0,0
1576868637968.75,21,61,19,0,0,0,0,0
1576868638000,17,65,25,0,0,0,0,0
1576868638031.25,12,67,28,0,0,0,0,0
1576868638062.5,14,64,27,0,0,0,0,0
1576868638093.75,7,59,25,0,0,0,0,0
1576868638125,5,59,22,0,0,0,0,0
1576868638156.25,7,57,20,0,0,0,0,0
1576868638187.5,8,55,20,0,0,0,0,0
1576868638218.75,7,59,25,0,0,0,0,0
1576868638250,3,60,28,0,0,0,0,0
1576868638281.25,3,62,30,0,0,0,0,0
1576868638312.5,2,60,31,0,0,0,0,0
1576868638343.75,-3,59,31,0,0,0,0,0
1576868638375,-6,56,27,0,0,0,0,0
1576868638406.25,-8,55,26,0,0,0,0,0
1576868638437.5,-1,55,28,0,0,0,0,0
1576868638468.75,-7,55,29,0,0,0,0,0
1576868638500,-6,57,34,0,0,0,0,0
1576868638531.25,-5,59,36,0,0,0,0,0
1576868638562.5,-8,56,33,0,0,0,0,0
1576868638593.75,-10,55,33,0,0,0,0,0
1576868638625,-10,54,30,0,0,0,0,0
1576868638656.25,-11,55,30,0,0,0,0,0
1576868638687.5,-11,56,33,0,0,0,0,0
1576868638718.75,-11,56,35,0,0,0,0,0
1576868638750,-11,55,33,0,0,0,0,0
1576868638781.25,-11,52,29,0,0,0,0,0
1576868638812.5,-15,52,28,0,0,0,0,0
1576868638843.75,-15,55,33,0,0,0,0,0
1576868638875,-14,56,32,0,0,0,0,0
1576868638906.25,-15,55,33,0,0,0,0,0
1576868638937.5,-14,54,33,0,0,0,0,0
1576868638968.75,-15,53,32,0,0,0,0,0
1576868639000,-15,54,32,0,0,0,0,0
1576868639031.25,-15,55,34,0,0,0,0,0
1576868639062.5,-14,54,33,0,0,0,0,0
1576868639093.75,-14,54,33,0,0,0,0,0
1576868639125,-16,55,32,0,0,0,0,0
1576868639156.25,-17,53,31,0,0,0,0,0
1576868639187.5,-23,53,31,0,0,0,0,0
1576868639218.75,-19,54,32,0,0,0,0,0
1576868639250,-14,55,34,0,0,0,0,0
1576868639281.25,-14,55,34,0,0,0,0,0
1576868639312.5,-20,53,31,0,0,0,0,0
1576868639343.75,-22,53,30,0,0,0,0,0
1576868639375,-15,51,26,0,0,0,0,0
1576868639406.25,-13,52,28,0,0,0,0,0
1576868639437.5,-16,56,35,0,0,0,0,0
1576868639468.75,-11,59,39,0,0,0,0,0
1576868639500,-11,58,36,0,0,0,0,0
1576868639531.25,-18,52,30,0,0,0,0,0
1576868639562.5,-16,53,30,0,0,0,0,0
1576868639593.75,-17,53,27,0,0,0,0,0
1576868639625,-17,53,29,0,0,0,0,0
1576868639656.25,-15,56,35,0,0,0,0,0
1576868639687.5,-14,54,33,0,0,0,0,0
1576868639718.75,-15,52,28,0,0,0,0,0
1576868639750,-17,52,26,0,0,0,0,0
1576868639781.25,-19,54,33,0,0,0,0,0
1576868639812.5,-19,55,34,0,0,0,0,0
1576868639843.75,-14,53,32,0,0,0,0,0
1576868639875,-17,53,31,0,0,0,0,0
1576868639906.25,-19,53,32,0,0,0,0,0
1576868639937.5,-20,52,29,0,0,0,0,0
1576868639968.75,-20,52,30,0,0,0,0,0
1576868640000,-19,53,31,0,0,0,0,0
1576868640031.25,-17,54,34,0,0,0,0,0
1576868640062.5,-20,54,34,0,0,0,0,0
1576868640093.75,-17,53,32,0,0,0,0,0
1576868640125,-19,54,32,0,0,0,0,0
1576868640156.25,-18,54,33,0,0,0,0,0
1576868640187.5,-18,54,33,0,0,0,0,0
1576868640218.75,-16,52,31,0,0,0,0,0
1576868640250,-17,53,33,0,0,0,0,0
1576868640281.25,-20,53,32,0,0,0,0,0
1576868640312.5,-10,48,38,0,0,0,0,0
1576868640343.75,-24,48,30,0,0,0,0,0
1576868640375,-8,51,32,0,0,0,0,0
1576868640406.25,-19,52,31,0,0,0,0,0
1576868640437.5,-18,54,35,0,0,0,0,0
1576868640468.75,-16,53,34,0,0,0,0,0
1576868640500,-19,54,32,0,0,0,0,0
1576868640531.25,-16,50,32,0,0,0,0,0
1576868640562.5,-17,52,27,0,0,0,0,0
1576868640593.75,-9,46,23,0,0,0,0,0
1576868640625,-18,49,26,0,0,0,0,0
1576868640656.25,-42,57,60,0,0,0,0,0
1576868640687.5,-21,52,45,0,0,0,0,0
1576868640718.75,-39,50,37,0,0,0,0,0
1576868640750,-75,59,29,0,0,0,0,0
1576868640781.25,-71,58,24,0,0,0,0,0
1576868640812.5,-59,65,24,0,0,0,0,0
1576868640843.75,-66,61,42,0,0,0,0,0
1576868640875,-78,39,32,0,0,0,0,0
1576868640906.25,-72,26,24,0,0,0,0,0
1576868640937.5,-61,11,18,0,0,0,0,0
1576868640968.75,-64,7,15,0,0,0,0,0
1576868641000,-56,-4,8,0,0,0,0,0
1576868641031.25,-52,-14,-2,0,0,0,0,0
1576868641062.5,-59,-13,2,0,0,0,0,0
1576868641093.75,-42,-13,14,0,0,0,0,0
1576868641125,-42,-17,19,0,0,0,0,0
1576868641156.25,-38,-21,22,0,0,0,0,0
1576868641187.5,-33,-23,19,0,0,0,0,0
1576868641218.75,-34,-24,17,0,0,0,0,0
1576868641250,-37,-22,20,0,0,0,0,0
1576868641281.25,-43,-25,22,0,0,0,0,0
1576868641312.5,-43,-27,24,0,0,0,0,0
1576868641343.75,-42,-31,24,0,0,0,0,0
1576868641375,-41,-34,21,0,0,0,0,0
1576868641406.25,-42,-36,19,0,0,0,0,0
1576868641437.5,-40,-36,21,0,0,0,0,0
1576868641468.75,-39,-39,22,0,0,0,0,0
1576868641500,-35,-43,15,0,0,0,0,0
1576868641531.25,-34,-44,11,0,0,0,0,0
1576868641562.5,-39,-45,13,0,0,0,0,0
1576868641593.75,-40,-43,16,0,0,0,0,0
1576868641625,-40,-43,14,0,0,0,0,0
1576868641656.25,-39,-43,12,0,0,0,0,0
1576868641687.5,-36,-44,13,0,0,0,0,0
1576868641718.75,-38,-44,14,0,0,0,0,0
1576868641750,-42,-43,18,0,0,0,0,0
1576868641781.25,-43,-44,15,0,0,0,0,0
1576868641812.5,-48,-43,7,0,0,0,0,0
1576868641843.75,-52,-44,-7,0,0,0,0,0
1576868641875,-58,-44,-12,0,0,0,0,0
1576868641906.25,-44,-43,-9,0,0,0,0,0
1576868641937.5,-43,-42,-6,0,0,0,0,0
1576868641968.75,-48,-43,-11,0,0,0,0,0
1576868642000,-50,-44,-13,0,0,0,0,0
1576868642031.25,-50,-43,-10,0,0,0,0,0
1576868642062.5,-51,-43,-11,0,0,0,0,0
1576868642093.75,-50,-41,-13,0,0,0,0,0
1576868642125,-49,-41,-14,0,0,0,0,0
1576868642156.25,-46,-39,-14,0,0,0,0,0
1576868642187.5,-47,-37,-14,0,0,0,0,0
1576868642218.75,-47,-36,-13,0,0,0,0,0
1576868642250,-46,-37,-14,0,0,0,0,0
1576868642281.25,-45,-37,-13,0,0,0,0,0
1576868642312.5,-46,-36,-16,0,0,0,0,0
1576868642343.75,-47,-36,-18,0,0,0,0,0
1576868642375,-50,-35,-23,0,0,0,0,0
1576868642406.25,-52,-34,-25,0,0,0,0,0
1576868642437.5,-49,-34,-23,0,0,0,0,0
1576868642468.75,-45,-33,-22,0,0,0,0,0
1576868642500,-46,-32,-26,0,0,0,0,0
1576868642531.25,-45,-32,-27,0,0,0,0,0
1576868642562.5,-46,-30,-29,0,0,0,0,0
1576868642593.75,-46,-29,-29,0,0,0,0,0
1576868642625,-44,-25,-29,0,0,0,0,0
1576868642656.25,-43,-24,-30,0,0,0,0,0
1576868642687.5,-45,-22,-32,0,0,0,0,0
1576868642718.75,-46,-22,-34,0,0,0,0,0
1576868642750,-43,-21,-35,0,0,0,0,0
1576868642781.25,-45,-18,-36,0,0,0,0,0
1576868642812.5,-47,-16,-35,0,0,0,0,0
1576868642843.75,-50,-15,-36,0,0,0,0,0
1576868642875,-50,-13,-37,0,0,0,0,0
1576868642906.25,-47,-10,-36,0,0,0,0,0
1576868642937.5,-48,-9,-35,0,0,0,0,0
1576868642968.75,-55,-7,-36,0,0,0,0,0
1576868643000,-59,-6,-37,0,0,0,0,0
1576868643031.25,-58,-6,-34,0,0,0,0,0
1576868643062.5,-53,-5,-29,0,0,0,0,0
1576868643093.75,-48,-1,-24,0,0,0,0,0
1576868643125,-59,5,-25,0,0,0,0,0
1576868643156.25,-66,8,-25,0,0,0,0,0
1576868643187.5,-69,11,-21,0,0,0,0,0
1576868643218.75,-65,11,-17,0,0,0,0,0
1576868643250,-57,12,-8,0,0,0,0,0
1576868643281.25,-58,14,-6,0,0,0,0,0
1576868643312.5,-67,17,-3,0,0,0,0,0
1576868643343.75,-73,19,-3,0,0,0,0,0
1576868643375,-76,17,-5,0,0,0,0,0
1576868643406.25,-66,18,0,0,0,0,0,0
1576868643437.5,-56,20,9,0,0,0,0,0
1576868643468.75,-59,21,13,0,0,0,0,0
1576868643500,-63,22,15,0,0,0,0,0
1576868643531.25,-64,20,15,0,0,0,0,0
1576868643562.5,-57,19,19,0,0,0,0,0
1576868643593.75,-54,20,25,0,0,0,0,0
1576868643625,-54,21,27,0,0,0,0,0
1576868643656.25,-51,20,32,0,0,0,0,0
1576868643687.5,-43,20,34,0,0,0,0,0
1576868643718.75,-44,22,38,0,0,0,0,0
1576868643750,-30,22,51,0,0,0,0,0
1576868643781.25,-20,26,56,0,0,0,0,0
1576868643812.5,-24,25,49,0,0,0,0,0
1576868643843.75,-28,25,44,0,0,0,0,0
1576868643875,-22,30,53,0,0,0,0,0
1576868643906.25,-20,32,56,0,0,0,0,0
1576868643937.5,-20,33,52,0,0,0,0,0
1576868643968.75,-21,33,52,0,0,0,0,0
1576868644000,-18,33,54,0,0,0,0,0
1576868644031.25,-17,35,53,0,0,0,0,0
1576868644062.5,-17,36,60,0,0,0,0,0
1576868644093.75,-19,37,59,0,0,0,0,0
1576868644125,-18,37,53,0,0,0,0,0
1576868644156.25,-18,35,47,0,0,0,0,0
1576868644187.5,-15,35,45,0,0,0,0,0
1576868644218.75,-16,36,47,0,0,0,0,0
1576868644250,-18,38,52,0,0,0,0,0
1576868644281.25,-20,40,55,0,0,0,0,0
1576868644312.5,-18,38,54,0,0,0,0,0
1576868644343.75,-17,35,48,0,0,0,0,0
1576868644375,-18,34,45,0,0,0,0,0
1576868644406.25,-22,35,47,0,0,0,0,0
1576868644437.5,-25,36,49,0,0,0,0,0
1576868644468.75,-24,36,52,0,0,0,0,0
1576868644500,-24,35,50,0,0,0,0,0
1576868644531.25,-29,36,52,0,0,0,0,0
1576868644562.5,-29,36,51,0,0,0,0,0
1576868644593.75,-36,36,51,0,0,0,0,0
1576868644625,-35,36,53,0,0,0,0,0
1576868644656.25,-38,33,47,0,0,0,0,0
1576868644687.5,-40,33,46,0,0,0,0,0
1576868644718.75,-37,33,48,0,0,0,0,0
1576868644750,-40,30,42,0,0,0,0,0
1576868644781.25,-37,31,42,0,0,0,0,0
1576868644812.5,-33,31,46,0,0,0,0,0
1576868644843.75,-33,29,46,0,0,0,0,0
1576868644875,-29,26,47,0,0,0,0,0
1576868644906.25,-32,24,41,0,0,0,0,0
1576868644937.5,-32,24,41,0,0,0,0,0
1576868644968.75,-31,25,44,0,0,0,0,0
1576868645000,-32,26,46,0,0,0,0,0
1576868645031.25,-35,26,46,0,0,0,0,0
1576868645062.5,-37,28,40,0,0,0,0,0
1576868645093.75,-51,34,36,0,0,0,0,0
1576868645125,-54,34,39,0,0,0,0,0
1576868645156.25,-44,29,31,0,0,0,0,0
1576868645187.5,-40,27,25,0,0,0,0,0
1576868645218.75,-37,29,24,0,0,0,0,0
1576868645250,-36,30,26,0,0,0,0,0
1576868645281.25,-38,34,31,0,0,0,0,0
1576868645312.5,-39,37,29,0,0,0,0,0
1576868645343.75,-41,42,24,0,0,0,0,0
1576868645375,-41,41,23,0,0,0,0,0
1576868645406.25,-2,57,56,0,0,0,0,0
1576868645437.5,-13,51,50,0,0,0,0,0
1576868645468.75,-30,111,51,0,0,0,0,0
1576868645500,-14,44,28,0,0,0,0,0
1576868645531.25,-31,48,25,0,0,0,0,0
1576868645562.5,-15,48,46,0,0,0,0,0
1576868645593.75,-13,39,50,0,0,0,0,0
1576868645625,-20,43,51,0,0,0,0,0
1576868645656.25,-30,50,30,0,0,0,0,0
1576868645687.5,-35,51,43,0,0,0,0,0
1576868645718.75,-9,40,47,0,0,0,0,0
1576868645750,-19,40,31,0,0,0,0,0
1576868645781.25,-26,50,42,0,0,0,0,0
1576868645812.5,-21,47,37,0,0,0,0,0
1576868645843.75,-21,47,41,0,0,0,0,0
1576868645875,-30,42,37,0,0,0,0,0
1576868645906.25,-29,39,42,0,0,0,0,0
1576868645937.5,-27,38,45,0,0,0,0,0
1576868645968.75,-31,35,46,0,0,0,0,0
1576868646000,-38,33,42,0,0,0,0,0
1576868646031.25,-33,24,47,0,0,0,0,0
1576868646062.5,-26,27,48,0,0,0,0,0
1576868646093.75,-18,29,49,0,0,0,0,0
1576868646125,-11,26,58,0,0,0,0,0
1576868646156.25,-11,12,66,0,0,0,0,0
1576868646187.5,-19,7,64,0,0,0,0,0
1576868646218.75,-31,-6,58,0,0,0,0,0
1576868646250,-16,10,59,0,0,0,0,0
1576868646281.25,10,8,73,0,0,0,0,0
1576868646312.5,-19,3,58,0,0,0,0,0
1576868646343.75,-36,-9,52,0,0,0,0,0
1576868646375,-5,-1,64,0,0,0,0,0
1576868646406.25,-9,3,70,0,0,0,0,0
1576868646437.5,-16,0,64,0,0,0,0,0
1576868646468.75,-6,-5,61,0,0,0,0,0
1576868646500,2,-8,67,0,0,0,0,0
1576868646531.25,10,-8,63,0,0,0,0,0
1576868646562.5,13,-3,62,0,0,0,0,0
1576868646593.75,15,-1,67,0,0,0,0,0
1576868646625,-1,-12,59,0,0,0,0,0
1576868646656.25,-3,-15,60,0,0,0,0,0
1576868646687.5,21,-25,67,0,0,0,0,0
1576868646718.75,19,-24,68,0,0,0,0,0
1576868646750,-3,-4,62,0,0,0,0,0
1576868646781.25,-16,-6,58,0,0,0,0,0
1576868646812.5,-4,-7,65,0,0,0,0,0
1576868646843.75,-19,-12,56,0,0,0,0,0
1576868646875,2,-15,53,0,0,0,0,0
1576868646906.25,0,-17,48,0,0,0,0,0
1576868646937.5,0,-16,41,0,0,0,0,0
1576868646968.75,3,-8,18,0,0,0,0,0
1576868647000,30,-4,-16,0,0,0,0,0
1576868647031.25,41,-1,-18,0,0,0,0,0
1576868647062.5,95,-8,-6,0,0,0,0,0
1576868647093.75,104,8,64,0,0,0,0,0
1576868647125,-32,-31,-44,0,0,0,0,0
1576868647156.25,0,-30,-27,0,0,0,0,0
1576868647187.5,-48,0,42,0,0,0,0,0
1576868647218.75,-47,-7,90,0,0,0,0,0
1576868647250,17,-19,89,0,0,0,0,0
1576868647281.25,32,-32,69,0,0,0,0,0
1576868647312.5,13,-24,22,0,0,0,0,0
1576868647343.75,-1,-4,32,0,0,0,0,0
1576868647375,-5,29,109,0,0,0,0,0
1576868647406.25,-32,41,89,0,0,0,0,0
1576868647437.5,-78,50,-12,0,0,0,0,0
1576868647468.75,-7,69,12,0,0,0,0,0
1576868647500,-8,125,127,0,0,0,0,0
1576868647531.25,4,100,86,0,0,0,0,0
1576868647562.5,-11,75,20,0,0,0,0,0
1576868647593.75,-16,47,41,0,0,0,0,0
1576868647625,-8,47,51,0,0,0,0,0
1576868647656.25,-3,43,29,0,0,0,0,0
1576868647687.5,-3,63,45,0,0,0,0,0
1576868647718.75,-35,51,35,0,0,0,0,0
1576868647750,-38,56,36,0,0,0,0,0
1576868647781.25,-44,72,45,0,0,0,0,0
1576868647812.5,-25,64,58,0,0,0,0,0
1576868647843.75,-9,46,43,0,0,0,0,0
1576868647875,-21,50,38,0,0,0,0,0
1576868647906.25,-72,69,65,0,0,0,0,0
1576868647937.5,-52,52,73,0,0,0,0,0
1576868647968.75,-45,36,54,0,0,0,0,0
1576868648000,-27,26,31,0,0,0,0,0
1576868648031.25,-5,31,27,0,0,0,0,0
1576868648062.5,40,45,-19,0,0,0,0,0
1576868648093.75,16,49,-16,0,0,0,0,0
1576868648125,-22,77,9,0,0,0,0,0
1576868648156.25,-25,78,24,0,0,0,0,0
1576868648187.5,-114,30,15,0,0,0,0,0
1576868648218.75,-52,21,36,0,0,0,0,0
1576868648250,-54,37,54,0,0,0,0,0
1576868648281.25,-28,30,50,0,0,0,0,0
1576868648312.5,-14,33,52,0,0,0,0,0
1576868648343.75,-8,33,45,0,0,0,0,0
1576868648375,-29,45,52,0,0,0,0,0
1576868648406.25,-69,7,45,0,0,0,0,0
1576868648437.5,-71,-2,35,0,0,0,0,0
1576868648468.75,-35,-9,44,0,0,0,0,0
1576868648500,-48,-13,43,0,0,0,0,0
1576868648531.25,-53,-19,34,0,0,0,0,0
1576868648562.5,-50,-11,35,0,0,0,0,0
1576868648593.75,-41,22,59,0,0,0,0,0
1576868648625,-52,35,62,0,0,0,0,0
1576868648656.25,-50,20,56,0,0,0,0,0
1576868648687.5,-16,7,35,0,0,0,0,0
1576868648718.75,-14,6,40,0,0,0,0,0
1576868648750,-54,21,48,0,0,0,0,0
1576868648781.25,-62,15,41,0,0,0,0,0
1576868648812.5,-41,5,34,0,0,0,0,0
1576868648843.75,-47,-1,39,0,0,0,0,0
1576868648875,-44,-1,52,0,0,0,0,0
1576868648906.25,-47,2,51,0,0,0,0,0
1576868648937.5,-74,10,30,0,0,0,0,0
1576868648968.75,-72,9,27,0,0,0,0,0
1576868649000,-52,15,46,0,0,0,0,0
1576868649031.25,-51,13,59,0,0,0,0,0
1576868649062.5,-47,-1,41,0,0,0,0,0
1576868649093.75,-35,-3,33,0,0,0,0,0
1576868649125,-38,-5,27,0,0,0,0,0
1576868649156.25,-29,-5,11,0,0,0,0,0
1576868649187.5,-28,3,8,0,0,0,0,0
1576868649218.75,-28,15,14,0,0,0,0,0
1576868649250,-41,25,16,0,0,0,0,0
1576868649281.25,-41,38,18,0,0,0,0,0
1576868649312.5,-35,45,27,0,0,0,0,0
1576868649343.75,-34,58,55,0,0,0,0,0
1576868649375,-35,63,55,0,0,0,0,0
1576868649406.25,-31,65,53,0,0,0,0,0
1576868649437.5,-24,61,55,0,0,0,0,0
1576868649468.75,-37,48,51,0,0,0,0,0
1576868649500,-49,37,51,0,0,0,0,0
1576868649531.25,-24,43,52,0,0,0,0,0
1576868649562.5,14,42,66,0,0,0,0,0
1576868649593.75,-19,41,48,0,0,0,0,0
1576868649625,-18,38,55,0,0,0,0,0
1576868649656.25,-14,32,50,0,0,0,0,0
1576868649687.5,-15,29,54,0,0,0,0,0
1576868649718.75,-12,29,63,0,0,0,0,0
1576868649750,-16,31,55,0,0,0,0,0
1576868649781.25,-10,31,54,0,0,0,0,0
1576868649812.5,-37,33,50,0,0,0,0,0
1576868649843.75,-23,33,59,0,0,0,0,0
1576868649875,-17,32,53,0,0,0,0,0
1576868649906.25,-21,35,49,0,0,0,0,0
1576868649937.5,-9,35,53,0,0,0,0,0
1576868649968.75,-10,37,47,0,0,0,0,0
1576868650000,-7,33,45,0,0,0,0,0
1576868650031.25,-11,36,53,0,0,0,0,0
1576868650062.5,-9,39,62,0,0,0,0,0
1576868650093.75,-13,46,70,0,0,0,0,0
1576868650125,-17,46,66,0,0,0,0,0
1576868650156.25,-43,43,58,0,0,0,0,0
1576868650187.5,-51,45,55,0,0,0,0,0
1576868650218.75,-69,33,42,0,0,0,0,0
1576868650250,-84,28,35,0,0,0,0,0
1576868650281.25,-66,16,28,0,0,0,0,0
1576868650312.5,-49,-17,9,0,0,0,0,0
1576868650343.75,-52,-22,2,0,0,0,0,0
1576868650375,-45,-21,12,0,0,0,0,0
1576868650406.25,-34,-22,19,0,0,0,0,0
1576868650437.5,-31,-20,25,0,0,0,0,0
1576868650468.75,-29,-19,28,0,0,0,0,0
1576868650500,-12,-16,37,0,0,0,0,0
1576868650531.25,-1,-13,49,0,0,0,0,0
1576868650562.5,14,-21,73,0,0,0,0,0
1576868650593.75,10,-25,75,0,0,0,0,0
1576868650625,-13,-29,61,0,0,0,0,0
1576868650656.25,-23,-33,52,0,0,0,0,0
1576868650687.5,-30,-38,43,0,0,0,0,0
1576868650718.75,-34,-30,42,0,0,0,0,0
1576868650750,-34,-26,40,0,0,0,0,0
1576868650781.25,-41,-8,29,0,0,0,0,0
1576868650812.5,-56,2,22,0,0,0,0,0
1576868650843.75,-36,27,38,0,0,0,0,0
1576868650875,-31,35,47,0,0,0,0,0
1576868650906.25,-38,47,52,0,0,0,0,0
1576868650937.5,-37,51,46,0,0,0,0,0
1576868650968.75,-3,45,36,0,0,0,0,0
1576868651000,13,43,50,0,0,0,0,0
1576868651031.25,4,46,56,0,0,0,0,0
1576868651062.5,-5,46,61,0,0,0,0,0
1576868651093.75,10,46,58,0,0,0,0,0
1576868651125,10,38,51,0,0,0,0,0
1576868651156.25,19,43,61,0,0,0,0,0
1576868651187.5,24,39,61,0,0,0,0,0
1576868651218.75,17,37,58,0,0,0,0,0
1576868651250,0,31,46,0,0,0,0,0
1576868651281.25,-1,30,42,0,0,0,0,0
1576868651312.5,14,41,41,0,0,0,0,0
1576868651343.75,9,45,39,0,0,0,0,0
1576868651375,9,41,41,0,0,0,0,0
1576868651406.25,14,40,56,0,0,0,0,0
1576868651437.5,23,43,59,0,0,0,0,0
1576868651468.75,12,48,54,0,0,0,0,0
1576868651500,9,43,55,0,0,0,0,0
1576868651531.25,13,45,62,0,0,0,0,0
1576868651562.5,6,44,67,0,0,0,0,0
1576868651593.75,13,40,66,0,0,0,0,0
1576868651625,15,37,59,0,0,0,0,0
1576868651656.25,6,43,49,0,0,0,0,0
1576868651687.5,13,45,52,0,0,0,0,0
1576868651718.75,18,49,49,0,0,0,0,0
1576868651750,17,49,48,0,0,0,0,0
1576868651781.25,14,47,41,0,0,0,0,0
1576868651812.5,9,48,43,0,0,0,0,0
1576868651843.75,10,41,51,0,0,0,0,0
1576868651875,15,35,51,0,0,0,0,0
1576868651906.25,11,35,51,0,0,0,0,0
1576868651937.5,0,39,67,0,0,0,0,0
1576868651968.75,-3,38,68,0,0,0,0,0
1576868652000,-6,32,62,0,0,0,0,0
1576868652031.25,-8,33,61,0,0,0,0,0
1576868652062.5,-16,30,53,0,0,0,0,0
1576868652093.75,-17,32,60,0,0,0,0,0
1576868652125,-22,31,61,0,0,0,0,0
1576868652156.25,-22,29,58,0,0,0,0,0
1576868652187.5,-33,31,54,0,0,0,0,0
1576868652218.75,-39,33,52,0,0,0,0,0
1576868652250,-53,30,50,0,0,0,0,0
1576868652281.25,-55,27,46,0,0,0,0,0
1576868652312.5,-54,19,37,0,0,0,0,0
1576868652343.75,-49,15,31,0,0,0,0,0
1576868652375,-45,13,29,0,0,0,0,0
1576868652406.25,-25,5,30,0,0,0,0,0
1576868652437.5,-24,3,27,0,0,0,0,0
1576868652468.75,-16,-3,33,0,0,0,0,0
1576868652500,-16,-1,40,0,0,0,0,0
1576868652531.25,-5,3,45,0,0,0,0,0
1576868652562.5,-1,5,45,0,0,0,0,0
1576868652593.75,1,16,52,0,0,0,0,0
1576868652625,-3,22,62,0,0,0,0,0
1576868652656.25,16,25,92,0,0,0,0,0
1576868652687.5,20,20,99,0,0,0,0,0
1576868652718.75,13,14,69,0,0,0,0,0
1576868652750,15,8,71,0,0,0,0,0
1576868652781.25,13,8,66,0,0,0,0,0
1576868652812.5,-2,10,52,0,0,0,0,0
1576868652843.75,-5,9,50,0,0,0,0,0
1576868652875,-11,10,52,0,0,0,0,0
1576868652906.25,-6,12,49,0,0,0,0,0
1576868652937.5,-11,17,37,0,0,0,0,0
1576868652968.75,-12,25,36,0,0,0,0,0
1576868653000,-24,44,42,0,0,0,0,0
1576868653031.25,-29,46,36,0,0,0,0,0
1576868653062.5,-20,46,41,0,0,0,0,0
1576868653093.75,-15,43,44,0,0,0,0,0
1576868653125,-20,45,47,0,0,0,0,0
1576868653156.25,-24,42,55,0,0,0,0,0
1576868653187.5,-19,42,54,0,0,0,0,0
1576868653218.75,-12,46,50,0,0,0,0,0
1576868653250,-6,48,52,0,0,0,0,0
1576868653281.25,-13,46,54,0,0,0,0,0
1576868653312.5,-24,45,44,0,0,0,0,0
1576868653343.75,-9,49,64,0,0,0,0,0
1576868653375,-2,47,72,0,0,0,0,0
1576868653406.25,10,44,76,0,0,0,0,0
1576868653437.5,7,43,68,0,0,0,0,0
1576868653468.75,-1,38,51,0,0,0,0,0
1576868653500,-2,37,46,0,0,0,0,0
1576868653531.25,4,41,47,0,0,0,0,0
1576868653562.5,-10,47,50,0,0,0,0,0
1576868653593.75,-14,48,65,0,0,0,0,0
1576868653625,-23,50,75,0,0,0,0,0
1576868653656.25,-21,48,62,0,0,0,0,0
1576868653687.5,-44,48,41,0,0,0,0,0
1576868653718.75,-52,49,35,0,0,0,0,0
1576868653750,-66,51,19,0,0,0,0,0
1576868653781.25,-66,47,13,0,0,0,0,0
1576868653812.5,-61,18,2,0,0,0,0,0
1576868653843.75,-56,3,-2,0,0,0,0,0
1576868653875,-38,1,14,0,0,0,0,0
1576868653906.25,-35,1,17,0,0,0,0,0
1576868653937.5,-22,-2,13,0,0,0,0,0
1576868653968.75,-5,-6,25,0,0,0,0,0
1576868654000,-4,-8,35,0,0,0,0,0
1576868654031.25,-5,-6,60,0,0,0,0,0
1576868654062.5,-8,-4,69,0,0,0,0,0
1576868654093.75,-9,-6,60,0,0,0,0,0
1576868654125,-23,1,66,0,0,0,0,0
1576868654156.25,-11,-9,49,0,0,0,0,0
1576868654187.5,-31,1,73,0,0,0,0,0
1576868654218.75,-46,-6,66,0,0,0,0,0
1576868654250,-47,4,66,0,0,0,0,0
1576868654281.25,-12,14,75,0,0,0,0,0
1576868654312.5,0,11,67,0,0,0,0,0
1576868654343.75,-7,7,57,0,0,0,0,0
1576868654375,-17,1,55,0,0,0,0,0
1576868654406.25,-21,1,54,0,0,0,0,0
1576868654437.5,-21,-3,54,0,0,0,0,0
1576868654468.75,-18,-2,55,0,0,0,0,0
1576868654500,-14,1,52,0,0,0,0,0
1576868654531.25,-8,3,56,0,0,0,0,0
1576868654562.5,4,4,61,0,0,0,0,0
1576868654593.75,2,2,62,0,0,0,0,0
1576868654625,4,-19,63,0,0,0,0,0
1576868654656.25,-11,-12,60,0,0,0,0,0
1576868654687.5,4,2,67,0,0,0,0,0
1576868654718.75,8,0,63,0,0,0,0,0
1576868654750,2,6,67,0,0,0,0,0
1576868654781.25,2,7,70,0,0,0,0,0
1576868654812.5,5,5,67,0,0,0,0,0
1576868654843.75,9,6,60,0,0,0,0,0
1576868654875,10,8,56,0,0,0,0,0
1576868654906.25,3,10,55,0,0,0,0,0
1576868654937.5,-3,11,57,0,0,0,0,0
1576868654968.75,-3,10,61,0,0,0,0,0
1576868655000,0,12,60,0,0,0,0,0
1576868655031.25,19,11,75,0,0,0,0,0
1576868655062.5,12,18,72,0,0,0,0,0
1576868655093.75,-3,16,72,0,0,0,0,0
1576868655125,5,16,68,0,0,0,0,0
1576868655156.25,7,15,64,0,0,0,0,0
1576868655187.5,9,17,63,0,0,0,0,0
1576868655218.75,7,19,62,0,0,0,0,0
1576868655250,7,23,61,0,0,0,0,0
1576868655281.25,6,19,62,0,0,0,0,0
1576868655312.5,5,24,65,0,0,0,0,0
1576868655343.75,3,22,55,0,0,0,0,0
1576868655375,23,15,53,0,0,0,0,0
1576868655406.25,7,20,52,0,0,0,0,0
1576868655437.5,8,22,60,0,0,0,0,0
1576868655468.75,8,23,64,0,0,0,0,0
1576868655500,11,23,64,0,0,0,0,0
1576868655531.25,36,25,75,0,0,0,0,0
1576868655562.5,16,22,65,0,0,0,0,0
1576868655593.75,18,23,48,0,0,0,0,0
1576868655625,15,23,46,0,0,0,0,0
1576868655656.25,9,24,47,0,0,0,0,0
1576868655687.5,7,27,50,0,0,0,0,0
1576868655718.75,12,34,53,0,0,0,0,0
1576868655750,8,20,52,0,0,0,0,0
1576868655781.25,8,28,65,0,0,0,0,0
1576868655812.5,13,40,71,0,0,0,0,0
1576868655843.75,20,30,57,0,0,0,0,0
1576868655875,17,22,55,0,0,0,0,0
1576868655906.25,14,23,62,0,0,0,0,0
1576868655937.5,17,17,48,0,0,0,0,0
1576868655968.75,22,29,47,0,0,0,0,0
1576868656000,22,31,47,0,0,0,0,0
1576868656031.25,19,26,39,0,0,0,0,0
1576868656062.5,23,25,39,0,0,0,0,0
1576868656093.75,22,22,40,0,0,0,0,0
1576868656125,13,14,43,0,0,0,0,0
1576868656156.25,15,21,50,0,0,0,0,0
1576868656187.5,-21,29,78,0,0,0,0,0
1576868656218.75,59,42,54,0,0,0,0,0
1576868656250,6,23,45,0,0,0,0,0
1576868656281.25,22,28,62,0,0,0,0,0
1576868656312.5,28,33,58,0,0,0,0,0
1576868656343.75,14,30,53,0,0,0,0,0
1576868656375,26,30,53,0,0,0,0,0
1576868656406.25,28,26,43,0,0,0,0,0
1576868656437.5,27,30,49,0,0,0,0,0
1576868656468.75,31,38,57,0,0,0,0,0
1576868656500,30,38,52,0,0,0,0,0
1576868656531.25,30,44,45,0,0,0,0,0
1576868656562.5,29,49,42,0,0,0,0,0
1576868656593.75,25,49,36,0,0,0,0,0
1576868656625,28,45,32,0,0,0,0,0
1576868656656.25,34,46,36,0,0,0,0,0
1576868656687.5,30,48,36,0,0,0,0,0
1576868656718.75,23,54,37,0,0,0,0,0
1576868656750,7,72,39,0,0,0,0,0
1576868656781.25,6,81,38,0,0,0,0,0
1576868656812.5,2,79,18,0,0,0,0,0
1576868656843.75,6,67,7,0,0,0,0,0
1576868656875,21,70,2,0,0,0,0,0
1576868656906.25,11,55,5,0,0,0,0,0
1576868656937.5,3,49,16,0,0,0,0,0
1576868656968.75,4,49,17,0,0,0,0,0
1576868657000,11,52,16,0,0,0,0,0
1576868657031.25,7,52,14,0,0,0,0,0
1576868657062.5,1,57,19,0,0,0,0,0
1576868657093.75,-7,57,19,0,0,0,0,0
1576868657125,-13,67,20,0,0,0,0,0
1576868657156.25,-8,68,36,0,0,0,0,0
1576868657187.5,-24,80,41,0,0,0,0,0
1576868657218.75,-35,79,54,0,0,0,0,0
1576868657250,-27,68,37,0,0,0,0,0
1576868657281.25,-19,55,12,0,0,0,0,0
1576868657312.5,-22,57,9,0,0,0,0,0
1576868657343.75,-30,58,33,0,0,0,0,0
1576868657375,-15,51,38,0,0,0,0,0
1576868657406.25,-6,53,11,0,0,0,0,0
1576868657437.5,-4,67,30,0,0,0,0,0
1576868657468.75,15,69,56,0,0,0,0,0
1576868657500,32,82,33,0,0,0,0,0
1576868657531.25,22,78,33,0,0,0,0,0
1576868657562.5,21,65,22,0,0,0,0,0
1576868657593.75,6,61,-1,0,0,0,0,0
1576868657625,5,55,-15,0,0,0,0,0
1576868657656.25,11,59,-13,0,0,0,0,0
1576868657687.5,18,61,0,0,0,0,0,0
1576868657718.75,19,64,5,0,0,0,0,0
1576868657750,15,63,9,0,0,0,0,0
1576868657781.25,14,63,12,0,0,0,0,0
1576868657812.5,10,66,18,0,0,0,0,0
1576868657843.75,8,67,19,0,0,0,0,0
1576868657875,4,66,20,0,0,0,0,0
1576868657906.25,4,68,24,0,0,0,0,0
1576868657937.5,12,74,19,0,0,0,0,0
1576868657968.75,4,72,15,0,0,0,0,0
1576868658000,-3,71,22,0,0,0,0,0
1576868658031.25,-14,67,41,0,0,0,0,0
1576868658062.5,10,66,57,0,0,0,0,0
1576868658093.75,-24,59,54,0,0,0,0,0
1576868658125,-42,58,51,0,0,0,0,0
1576868658156.25,-39,61,38,0,0,0,0,0
1576868658187.5,-22,60,40,0,0,0,0,0
1576868658218.75,-19,53,41,0,0,0,0,0
1576868658250,-16,49,40,0,0,0,0,0
1576868658281.25,10,40,49,0,0,0,0,0
1576868658312.5,10,39,58,0,0,0,0,0
1576868658343.75,-11,34,54,0,0,0,0,0
1576868658375,-47,19,32,0,0,0,0,0
1576868658406.25,-39,16,39,0,0,0,0,0
1576868658437.5,-26,5,44,0,0,0,0,0
1576868658468.75,-24,-3,41,0,0,0,0,0
1576868658500,-5,-13,33,0,0,0,0,0
1576868658531.25,-14,-13,30,0,0,0,0,0
1576868658562.5,-30,-7,41,0,0,0,0,0
1576868658593.75,-27,-3,50,0,0,0,0,0
1576868658625,-22,2,58,0,0,0,0,0
1576868658656.25,-18,4,44,0,0,0,0,0
1576868658687.5,-31,14,18,0,0,0,0,0
1576868658718.75,-31,29,41,0,0,0,0,0
1576868658750,-10,36,55,0,0,0,0,0
1576868658781.25,-16,43,49,0,0,0,0,0
1576868658812.5,-23,46,37,0,0,0,0,0
1576868658843.75,-36,56,24,0,0,0,0,0
1576868658875,-25,62,33,0,0,0,0,0
1576868658906.25,-8,86,70,0,0,0,0,0
1576868658937.5,-3,84,74,0,0,0,0,0
1576868658968.75,-11,53,55,0,0,0,0,0
1576868659000,-14,36,50,0,0,0,0,0
1576868659031.25,10,33,50,0,0,0,0,0
1576868659062.5,9,41,62,0,0,0,0,0
1576868659093.75,-10,58,66,0,0,0,0,0
1576868659125,-6,55,60,0,0,0,0,0
1576868659156.25,-29,51,45,0,0,0,0,0
1576868659187.5,-17,46,42,0,0,0,0,0
1576868659218.75,-10,42,42,0,0,0,0,0
1576868659250,-8,53,51,0,0,0,0,0
1576868659281.25,-5,58,62,0,0,0,0,0
1576868659312.5,-30,51,55,0,0,0,0,0
1576868659343.75,-42,47,47,0,0,0,0,0
1576868659375,-59,42,47,0,0,0,0,0
1576868659406.25,-56,35,48,0,0,0,0,0
1576868659437.5,-48,9,46,0,0,0,0,0
1576868659468.75,-47,0,44,0,0,0,0,0
1576868659500,-59,-5,26,0,0,0,0,0
1576868659531.25,-59,-7,21,0,0,0,0,0
1576868659562.5,-52,-9,21,0,0,0,0,0
1576868659593.75,-45,-7,33,0,0,0,0,0
1576868659625,-38,-6,38,0,0,0,0,0
1576868659656.25,-24,-10,40,0,0,0,0,0
1576868659687.5,-20,-10,41,0,0,0,0,0
1576868659718.75,-13,-12,34,0,0,0,0,0
1576868659750,-9,-11,33,0,0,0,0,0
1576868659781.25,8,-13,63,0,0,0,0,0
1576868659812.5,6,-13,74,0,0,0,0,0
1576868659843.75,-12,-13,48,0,0,0,0,0
1576868659875,-23,-16,32,0,0,0,0,0
1576868659906.25,-33,-19,18,0,0,0,0,0
1576868659937.5,-20,-5,40,0,0,0,0,0
1576868659968.75,-15,30,64,0,0,0,0,0
1576868660000,-57,25,10,0,0,0,0,0
1576868660031.25,-45,44,2,0,0,0,0,0
1576868660062.5,-56,63,27,0,0,0,0,0
1576868660093.75,-44,69,35,0,0,0,0,0
1576868660125,-29,69,64,0,0,0,0,0
1576868660156.25,-40,63,89,0,0,0,0,0
1576868660187.5,-26,48,84,0,0,0,0,0
1576868660218.75,-47,44,57,0,0,0,0,0
1576868660250,-52,48,21,0,0,0,0,0
1576868660281.25,-21,56,34,0,0,0,0,0
1576868660312.5,-26,39,43,0,0,0,0,0
1576868660343.75,-12,36,34,0,0,0,0,0
1576868660375,-16,41,45,0,0,0,0,0
1576868660406.25,-40,47,44,0,0,0,0,0
1576868660437.5,-45,45,45,0,0,0,0,0
1576868660468.75,-29,49,53,0,0,0,0,0
1576868660500,-22,44,61,0,0,0,0,0
1576868660531.25,-20,33,64,0,0,0,0,0
1576868660562.5,-13,32,69,0,0,0,0,0
1576868660593.75,-18,14,52,0,0,0,0,0
1576868660625,-24,6,35,0,0,0,0,0
1576868660656.25,-64,-2,-1,0,0,0,0,0
1576868660687.5,-81,-2,-10,0,0,0,0,0
1576868660718.75,-92,-12,-8,0,0,0,0,0
1576868660750,-82,-15,4,0,0,0,0,0
1576868660781.25,-62,-15,18,0,0,0,0,0
1576868660812.5,-50,-8,17,0,0,0,0,0
1576868660843.75,-47,-6,13,0,0,0,0,0
1576868660875,-42,-2,21,0,0,0,0,0
1576868660906.25,-36,-2,29,0,0,0,0,0
1576868660937.5,-17,-5,48,0,0,0,0,0
1576868660968.75,-9,-7,58,0,0,0,0,0
1576868661000,-19,-4,58,0,0,0,0,0
1576868661031.25,-34,-1,52,0,0,0,0,0
1576868661062.5,-50,-7,51,0,0,0,0,0
1576868661093.75,-50,-11,46,0,0,0,0,0
1576868661125,-32,-18,42,0,0,0,0,0
1576868661156.25,-35,-19,34,0,0,0,0,0
1576868661187.5,-35,-17,31,0,0,0,0,0
1576868661218.75,-30,-2,30,0,0,0,0,0
1576868661250,-25,12,33,0,0,0,0,0
1576868661281.25,-39,52,28,0,0,0,0,0
1576868661312.5,-67,65,6,0,0,0,0,0
1576868661343.75,-65,42,-3,0,0,0,0,0
1576868661375,-56,40,1,0,0,0,0,0
1576868661406.25,-68,30,4,0,0,0,0,0
1576868661437.5,-55,22,18,0,0,0,0,0
1576868661468.75,-53,40,47,0,0,0,0,0
1576868661500,-60,43,42,0,0,0,0,0
1576868661531.25,-45,51,33,0,0,0,0,0
1576868661562.5,-42,43,25,0,0,0,0,0
1576868661593.75,-37,46,27,0,0,0,0,0
1576868661625,-52,42,30,0,0,0,0,0
1576868661656.25,-32,43,49,0,0,0,0,0
1576868661687.5,-37,42,53,0,0,0,0,0
1576868661718.75,-40,40,48,0,0,0,0,0
1576868661750,3,36,53,0,0,0,0,0
1576868661781.25,15,35,52,0,0,0,0,0
1576868661812.5,18,34,47,0,0,0,0,0
1576868661843.75,1,36,38,0,0,0,0,0
1576868661875,-14,50,28,0,0,0,0,0
1576868661906.25,-34,43,26,0,0,0,0,0
1576868661937.5,-30,41,44,0,0,0,0,0
1576868661968.75,-16,35,50,0,0,0,0,0
1576868662000,-14,37,55,0,0,0,0,0
1576868662031.25,5,41,54,0,0,0,0,0
1576868662062.5,19,40,60,0,0,0,0,0
1576868662093.75,-1,41,50,0,0,0,0,0
1576868662125,11,44,57,0,0,0,0,0
1576868662156.25,-3,37,38,0,0,0,0,0
1576868662187.5,-2,35,42,0,0,0,0,0
1576868662218.75,12,40,54,0,0,0,0,0
1576868662250,11,44,64,0,0,0,0,0
1576868662281.25,21,36,44,0,0,0,0,0
1576868662312.5,42,37,51,0,0,0,0,0
1576868662343.75,24,41,59,0,0,0,0,0
1576868662375,-3,40,53,0,0,0,0,0
1576868662406.25,-1,38,55,0,0,0,0,0
1576868662437.5,19,38,49,0,0,0,0,0
1576868662468.75,16,40,53,0,0,0,0,0
1576868662500,0,40,55,0,0,0,0,0
1576868662531.25,0,40,57,0,0,0,0,0
1576868662562.5,0,42,60,0,0,0,0,0
1576868662593.75,6,42,63,0,0,0,0,0
1576868662625,15,43,49,0,0,0,0,0
1576868662656.25,14,42,40,0,0,0,0,0
1576868662687.5,-18,43,44,0,0,0,0,0
1576868662718.75,-30,41,44,0,0,0,0,0
1576868662750,-38,37,40,0,0,0,0,0
1576868662781.25,-58,40,19,0,0,0,0,0
1576868662812.5,-58,39,12,0,0,0,0,0
1576868662843.75,-69,29,-2,0,0,0,0,0
1576868662875,-68,36,-4,0,0,0,0,0
1576868662906.25,-39,46,4,0,0,0,0,0
1576868662937.5,-54,38,-10,0,0,0,0,0
1576868662968.75,-69,36,-17,0,0,0,0,0
1576868663000,-62,24,-13,0,0,0,0,0
1576868663031.25,-48,-7,-12,0,0,0,0,0
1576868663062.5,-58,-13,-2,0,0,0,0,0
1576868663093.75,-61,-6,5,0,0,0,0,0
1576868663125,-61,-2,-5,0,0,0,0,0
1576868663156.25,-56,-4,-21,0,0,0,0,0
1576868663187.5,-56,-11,-18,0,0,0,0,0
1576868663218.75,-60,-11,-16,0,0,0,0,0
1576868663250,-68,-6,-21,0,0,0,0,0
1576868663281.25,-66,-6,-28,0,0,0,0,0
1576868663312.5,-54,-10,-34,0,0,0,0,0
1576868663343.75,-54,-11,-31,0,0,0,0,0
1576868663375,-46,-13,-17,0,0,0,0,0
1576868663406.25,-50,-12,-6,0,0,0,0,0
1576868663437.5,-49,-19,18,0,0,0,0,0
1576868663468.75,-53,-20,29,0,0,0,0,0
1576868663500,-71,-19,29,0,0,0,0,0
1576868663531.25,-68,-19,18,0,0,0,0,0
1576868663562.5,12,-13,51,0,0,0,0,0
1576868663593.75,18,-11,82,0,0,0,0,0
1576868663625,-13,-13,73,0,0,0,0,0
1576868663656.25,-18,-14,64,0,0,0,0,0
1576868663687.5,-17,-10,61,0,0,0,0,0
1576868663718.75,-18,1,50,0,0,0,0,0
1576868663750,-23,21,57,0,0,0,0,0
1576868663781.25,-61,36,36,0,0,0,0,0
1576868663812.5,-61,11,21,0,0,0,0,0
1576868663843.75,-50,11,-10,0,0,0,0,0
1576868663875,-65,55,-22,0,0,0,0,0
1576868663906.25,-66,61,19,0,0,0,0,0
1576868663937.5,-58,60,36,0,0,0,0,0
1576868663968.75,-61,59,26,0,0,0,0,0
1576868664000,-47,42,61,0,0,0,0,0
1576868664031.25,-30,33,78,0,0,0,0,0
1576868664062.5,-45,36,58,0,0,0,0,0
1576868664093.75,-49,46,45,0,0,0,0,0
1576868664125,-33,47,46,0,0,0,0,0
1576868664156.25,-36,45,49,0,0,0,0,0
1576868664187.5,-28,41,44,0,0,0,0,0
1576868664218.75,-13,43,47,0,0,0,0,0
1576868664250,-18,38,38,0,0,0,0,0
1576868664281.25,-35,34,22,0,0,0,0,0
1576868664312.5,-34,38,49,0,0,0,0,0
1576868664343.75,-10,43,58,0,0,0,0,0
1576868664375,-18,43,53,0,0,0,0,0
1576868664406.25,-10,42,50,0,0,0,0,0
1576868664437.5,-28,36,38,0,0,0,0,0
1576868664468.75,-19,33,24,0,0,0,0,0
1576868664500,-22,40,33,0,0,0,0,0
1576868664531.25,-28,40,46,0,0,0,0,0
1576868664562.5,-48,48,52,0,0,0,0,0
1576868664593.75,-34,34,43,0,0,0,0,0
1576868664625,-28,20,38,0,0,0,0,0
1576868664656.25,-34,24,69,0,0,0,0,0
1576868664687.5,-42,31,76,0,0,0,0,0
1576868664718.75,-81,20,21,0,0,0,0,0
1576868664750,-78,6,9,0,0,0,0,0
1576868664781.25,-49,-1,24,0,0,0,0,0
1576868664812.5,-24,-18,58,0,0,0,0,0
1576868664843.75,-26,-23,52,0,0,0,0,0
1576868664875,-52,-22,27,0,0,0,0,0
1576868664906.25,-57,-16,19,0,0,0,0,0
1576868664937.5,-36,-3,40,0,0,0,0,0
1576868664968.75,-25,-3,58,0,0,0,0,0
1576868665000,-9,-9,69,0,0,0,0,0
1576868665031.25,0,-11,62,0,0,0,0,0
1576868665062.5,29,-13,46,0,0,0,0,0
1576868665093.75,40,-7,53,0,0,0,0,0
1576868665125,5,-4,61,0,0,0,0,0
1576868665156.25,-27,-5,44,0,0,0,0,0
1576868665187.5,-35,-7,32,0,0,0,0,0
1576868665218.75,-26,-2,34,0,0,0,0,0
1576868665250,-48,6,24,0,0,0,0,0
1576868665281.25,-48,21,38,0,0,0,0,0
1576868665312.5,-26,34,45,0,0,0,0,0
1576868665343.75,-41,52,21,0,0,0,0,0
1576868665375,-114,100,-13,0,0,0,0,0
1576868665406.25,-18,94,55,0,0,0,0,0
1576868665437.5,-82,55,52,0,0,0,0,0
1576868665468.75,-46,42,59,0,0,0,0,0
1576868665500,-42,38,37,0,0,0,0,0
1576868665531.25,-40,39,34,0,0,0,0,0
1576868665562.5,-34,52,44,0,0,0,0,0
1576868665593.75,-39,51,39,0,0,0,0,0
1576868665625,-39,48,51,0,0,0,0,0
1576868665656.25,-27,46,47,0,0,0,0,0
1576868665687.5,-31,45,41,0,0,0,0,0
1576868665718.75,-20,47,33,0,0,0,0,0
1576868665750,-48,55,11,0,0,0,0,0
1576868665781.25,-49,55,12,0,0,0,0,0
1576868665812.5,-39,34,27,0,0,0,0,0
1576868665843.75,-32,32,46,0,0,0,0,0
1576868665875,-39,43,69,0,0,0,0,0
1576868665906.25,-31,37,73,0,0,0,0,0
1576868665937.5,-39,25,65,0,0,0,0,0
1576868665968.75,-38,6,61,0,0,0,0,0
1576868666000,-43,6,60,0,0,0,0,0
1576868666031.25,-12,-9,52,0,0,0,0,0
1576868666062.5,-9,-8,46,0,0,0,0,0
1576868666093.75,-13,-3,69,0,0,0,0,0
1576868666125,-26,4,55,0,0,0,0,0
1576868666156.25,-15,-1,58,0,0,0,0,0
1576868666187.5,-14,-8,48,0,0,0,0,0
1576868666218.75,-16,5,42,0,0,0,0,0
1576868666250,-14,14,66,0,0,0,0,0
1576868666281.25,-9,3,75,0,0,0,0,0
1576868666312.5,-4,-2,77,0,0,0,0,0
1576868666343.75,-2,-16,76,0,0,0,0,0
1576868666375,-6,-19,75,0,0,0,0,0
1576868666406.25,-10,-19,75,0,0,0,0,0
1576868666437.5,-16,-15,75,0,0,0,0,0
1576868666468.75,-21,-12,71,0,0,0,0,0
1576868666500,-19,-12,63,0,0,0,0,0
1576868666531.25,-15,-14,57,0,0,0,0,0
1576868666562.5,-7,-15,40,0,0,0,0,0
1576868666593.75,-7,-17,32,0,0,0,0,0
1576868666625,-4,-17,17,0,0,0,0,0
1576868666656.25,-3,-17,13,0,0,0,0,0
1576868666687.5,4,-12,15,0,0,0,0,0
1576868666718.75,11,-13,19,0,0,0,0,0
1576868666750,22,-14,26,0,0,0,0,0
1576868666781.25,31,-9,49,0,0,0,0,0
1576868666812.5,30,-4,63,0,0,0,0,0
1576868666843.75,6,11,87,0,0,0,0,0
1576868666875,-6,16,93,0,0,0,0,0
1576868666906.25,1,5,102,0,0,0,0,0
1576868666937.5,4,4,95,0,0,0,0,0
1576868666968.75,6,-14,127,0,0,0,0,0
1576868667000,6,-5,65,0,0,0,0,0
1576868667031.25,-7,2,69,0,0,0,0,0
1576868667062.5,-9,4,80,0,0,0,0,0
1576868667093.75,-16,1,64,0,0,0,0,0
1576868667125,-19,-2,55,0,0,0,0,0
1576868667156.25,-4,0,59,0,0,0,0,0
1576868667187.5,7,0,55,0,0,0,0,0
1576868667218.75,3,2,54,0,0,0,0,0
1576868667250,5,2,52,0,0,0,0,0
1576868667281.25,8,0,48,0,0,0,0,0
1576868667312.5,6,-3,48,0,0,0,0,0
1576868667343.75,-2,-1,46,0,0,0,0,0
1576868667375,-40,20,53,0,0,0,0,0
1576868667406.25,-61,28,61,0,0,0,0,0
1576868667437.5,-79,17,58,0,0,0,0,0
1576868667468.75,-60,13,57,0,0,0,0,0
1576868667500,-54,-6,35,0,0,0,0,0
1576868667531.25,-49,5,18,0,0,0,0,0
1576868667562.5,-47,15,28,0,0,0,0,0
1576868667593.75,-22,17,55,0,0,0,0,0
1576868667625,-5,19,66,0,0,0,0,0
1576868667656.25,-7,31,71,0,0,0,0,0
1576868667687.5,-33,43,52,0,0,0,0,0
1576868667718.75,-53,55,60,0,0,0,0,0
1576868667750,-61,44,48,0,0,0,0,0
1576868667781.25,-24,25,46,0,0,0,0,0
1576868667812.5,-17,19,50,0,0,0,0,0
1576868667843.75,-42,27,47,0,0,0,0,0
1576868667875,-53,31,36,0,0,0,0,0
1576868667906.25,-36,28,48,0,0,0,0,0
1576868667937.5,-34,30,45,0,0,0,0,0
1576868667968.75,-35,35,51,0,0,0,0,0
1576868668000,-36,28,37,0,0,0,0,0
1576868668031.25,-37,24,40,0,0,0,0,0
1576868668062.5,-40,26,36,0,0,0,0,0
1576868668093.75,-37,22,41,0,0,0,0,0
1576868668125,-45,30,47,0,0,0,0,0
1576868668156.25,-42,26,47,0,0,0,0,0
1576868668187.5,-39,23,47,0,0,0,0,0
1576868668218.75,-47,22,42,0,0,0,0,0
1576868668250,-42,24,44,0,0,0,0,0
1576868668281.25,-43,23,41,0,0,0,0,0
1576868668312.5,-33,28,42,0,0,0,0,0
1576868668343.75,-35,31,45,0,0,0,0,0
1576868668375,-42,30,36,0,0,0,0,0
1576868668406.25,-37,33,41,0,0,0,0,0
1576868668437.5,-41,26,33,0,0,0,0,0
1576868668468.75,-40,24,30,0,0,0,0,0
1576868668500,-42,26,34,0,0,0,0,0
1576868668531.25,-38,23,35,0,0,0,0,0
1576868668562.5,-46,32,39,0,0,0,0,0
1576868668593.75,-75,21,26,0,0,0,0,0
1576868668625,-64,22,19,0,0,0,0,0
1576868668656.25,-37,28,42,0,0,0,0,0
1576868668687.5,-26,30,54,0,0,0,0,0
1576868668718.75,-66,27,15,0,0,0,0,0
1576868668750,-65,17,-3,0,0,0,0,0
1576868668781.25,-42,24,27,0,0,0,0,0
1576868668812.5,-53,33,39,0,0,0,0,0
1576868668843.75,-74,32,33,0,0,0,0,0
1576868668875,-56,24,21,0,0,0,0,0
1576868668906.25,-54,26,20,0,0,0,0,0
1576868668937.5,-53,27,22,0,0,0,0,0
1576868668968.75,-54,26,19,0,0,0,0,0
1576868669000,-58,28,17,0,0,0,0,0
1576868669031.25,-60,23,8,0,0,0,0,0
1576868669062.5,-53,25,12,0,0,0,0,0
1576868669093.75,-48,25,8,0,0,0,0,0
1576868669125,-73,31,-1,0,0,0,0,0
1576868669156.25,-65,36,11,0,0,0,0,0
1576868669187.5,-63,40,20,0,0,0,0,0
1576868669218.75,-84,25,2,0,0,0,0,0
1576868669250,-90,16,-10,0,0,0,0,0
1576868669281.25,-71,10,10,0,0,0,0,0
1576868669312.5,-64,14,32,0,0,0,0,0
1576868669343.75,-67,3,30,0,0,0,0,0
1576868669375,-65,1,28,0,0,0,0,0
1576868669406.25,-60,-2,33,0,0,0,0,0
1576868669437.5,-53,-5,32,0,0,0,0,0
1576868669468.75,-43,-15,21,0,0,0,0,0
1576868669500,-30,-14,31,0,0,0,0,0
1576868669531.25,-19,-16,38,0,0,0,0,0
1576868669562.5,-22,-20,27,0,0,0,0,0
1576868669593.75,-31,-22,17,0,0,0,0,0
1576868669625,-20,-25,28,0,0,0,0,0
1576868669656.25,-21,-26,24,0,0,0,0,0
1576868669687.5,-35,-25,23,0,0,0,0,0
1576868669718.75,-27,-25,23,0,0,0,0,0
1576868669750,-46,-17,5,0,0,0,0,0
1576868669781.25,-51,-17,7,0,0,0,0,0
1576868669812.5,-58,-15,19,0,0,0,0,0
1576868669843.75,-64,-16,19,0,0,0,0,0
1576868669875,-71,-3,-9,0,0,0,0,0
1576868669906.25,-128,1,-30,0,0,0,0,0
1576868669937.5,-11,-18,19,0,0,0,0,0
1576868669968.75,-84,-6,0,0,0,0,0,0
1576868670000,-42,0,7,0,0,0,0,0
1576868670031.25,-49,3,3,0,0,0,0,0
1576868670062.5,-57,18,8,0,0,0,0,0
1576868670093.75,-56,30,18,0,0,0,0,0
1576868670125,-51,30,22,0,0,0,0,0
1576868670156.25,-71,19,29,0,0,0,0,0
1576868670187.5,-73,12,27,0,0,0,0,0
1576868670218.75,-59,9,22,0,0,0,0,0
1576868670250,-67,7,20,0,0,0,0,0
1576868670281.25,-69,9,33,0,0,0,0,0
1576868670312.5,-54,7,39,0,0,0,0,0
1576868670343.75,-36,1,47,0,0,0,0,0
1576868670375,-2,-6,70,0,0,0,0,0
1576868670406.25,1,-3,75,0,0,0,0,0
1576868670437.5,-9,-14,61,0,0,0,0,0
1576868670468.75,-11,-16,56,0,0,0,0,0
1576868670500,-6,-15,45,0,0,0,0,0
1576868670531.25,-9,-17,34,0,0,0,0,0
1576868670562.5,-20,-7,33,0,0,0,0,0
1576868670593.75,-37,12,34,0,0,0,0,0
1576868670625,-128,44,-42,0,0,0,0,0
1576868670656.25,-8,-3,28,0,0,0,0,0
1576868670687.5,-44,51,-8,0,0,0,0,0
1576868670718.75,-82,15,6,0,0,0,0,0
1576868670750,-7,32,76,0,0,0,0,0
1576868670781.25,38,31,101,0,0,0,0,0
1576868670812.5,19,37,96,0,0,0,0,0
1576868670843.75,-12,50,57,0,0,0,0,0
1576868670875,-14,50,48,0,0,0,0,0
1576868670906.25,-15,49,44,0,0,0,0,0
1576868670937.5,-14,48,44,0,0,0,0,0
1576868670968.75,-13,42,46,0,0,0,0,0
1576868671000,-9,38,46,0,0,0,0,0
1576868671031.25,-15,48,44,0,0,0,0,0
1576868671062.5,-17,47,56,0,0,0,0,0
1576868671093.75,7,39,58,0,0,0,0,0
1576868671125,-19,40,46,0,0,0,0,0
1576868671156.25,-24,44,48,0,0,0,0,0
1576868671187.5,0,44,55,0,0,0,0,0
1576868671218.75,3,41,52,0,0,0,0,0
1576868671250,-1,40,55,0,0,0,0,0
1576868671281.25,-8,38,60,0,0,0,0,0
1576868671312.5,-15,46,76,0,0,0,0,0
1576868671343.75,-15,50,76,0,0,0,0,0
1576868671375,-43,50,62,0,0,0,0,0
1576868671406.25,-58,47,52,0,0,0,0,0
1576868671437.5,-77,38,22,0,0,0,0,0
1576868671468.75,-86,30,16,0,0,0,0,0
1576868671500,-70,19,24,0,0,0,0,0
1576868671531.25,-62,10,24,0,0,0,0,0
1576868671562.5,-47,0,25,0,0,0,0,0
1576868671593.75,-41,-2,28,0,0,0,0,0
1576868671625,-34,-3,28,0,0,0,0,0
1576868671656.25,-19,-9,24,0,0,0,0,0
1576868671687.5,-14,-10,26,0,0,0,0,0
1576868671718.75,-2,-9,39,0,0,0,0,0
1576868671750,8,-9,50,0,0,0,0,0
1576868671781.25,28,-7,43,0,0,0,0,0
1576868671812.5,28,-4,51,0,0,0,0,0
1576868671843.75,2,-10,66,0,0,0,0,0
1576868671875,1,-17,72,0,0,0,0,0
1576868671906.25,3,-23,65,0,0,0,0,0
1576868671937.5,-2,-23,57,0,0,0,0,0
1576868671968.75,-5,-19,44,0,0,0,0,0
1576868672000,-22,-18,42,0,0,0,0,0
1576868672031.25,-20,-16,40,0,0,0,0,0
1576868672062.5,-19,1,50,0,0,0,0,0
1576868672093.75,-19,10,47,0,0,0,0,0
1576868672125,-60,33,27,0,0,0,0,0
1576868672156.25,-70,40,26,0,0,0,0,0
1576868672187.5,-43,44,33,0,0,0,0,0
1576868672218.75,-38,49,39,0,0,0,0,0
1576868672250,-41,44,52,0,0,0,0,0
1576868672281.25,-32,40,57,0,0,0,0,0
1576868672312.5,-14,36,70,0,0,0,0,0
1576868672343.75,-46,39,68,0,0,0,0,0
1576868672375,-44,42,53,0,0,0,0,0
1576868672406.25,-30,53,39,0,0,0,0,0
1576868672437.5,-42,34,21,0,0,0,0,0
1576868672468.75,4,45,42,0,0,0,0,0
1576868672500,-33,41,17,0,0,0,0,0
1576868672531.25,2,45,71,0,0,0,0,0
1576868672562.5,6,44,69,0,0,0,0,0
1576868672593.75,-7,45,63,0,0,0,0,0
1576868672625,-15,44,59,0,0,0,0,0
1576868672656.25,-4,39,68,0,0,0,0,0
1576868672687.5,-4,38,65,0,0,0,0,0
1576868672718.75,-24,40,55,0,0,0,0,0
1576868672750,-24,43,61,0,0,0,0,0
1576868672781.25,-33,45,52,0,0,0,0,0
1576868672812.5,-56,43,37,0,0,0,0,0
1576868672843.75,-59,44,33,0,0,0,0,0
1576868672875,-60,41,26,0,0,0,0,0
1576868672906.25,-62,33,18,0,0,0,0,0
1576868672937.5,-76,7,-2,0,0,0,0,0
1576868672968.75,-75,1,1,0,0,0,0,0
1576868673000,-59,-10,8,0,0,0,0,0
1576868673031.25,-51,-18,6,0,0,0,0,0
1576868673062.5,-37,-24,13,0,0,0,0,0
1576868673093.75,-33,-28,19,0,0,0,0,0
1576868673125,-31,-28,24,0,0,0,0,0
1576868673156.25,-33,-26,22,0,0,0,0,0
1576868673187.5,-18,-22,32,0,0,0,0,0
1576868673218.75,-13,-21,47,0,0,0,0,0
1576868673250,-7,-20,54,0,0,0,0,0
1576868673281.25,-16,-17,55,0,0,0,0,0
1576868673312.5,-19,-15,53,0,0,0,0,0
1576868673343.75,-3,-17,49,0,0,0,0,0
1576868673375,-2,-17,40,0,0,0,0,0
1576868673406.25,-23,-14,19,0,0,0,0,0
1576868673437.5,-42,-6,14,0,0,0,0,0
1576868673468.75,-91,9,13,0,0,0,0,0
1576868673500,-72,11,24,0,0,0,0,0
1576868673531.25,-65,26,39,0,0,0,0,0
1576868673562.5,-82,28,17,0,0,0,0,0
1576868673593.75,-93,25,2,0,0,0,0,0
1576868673625,-52,19,37,0,0,0,0,0
1576868673656.25,-59,12,49,0,0,0,0,0
1576868673687.5,-64,-4,53,0,0,0,0,0
1576868673718.75,-43,-7,53,0,0,0,0,0
1576868673750,-9,5,86,0,0,0,0,0
1576868673781.25,-26,12,84,0,0,0,0,0
1576868673812.5,-51,21,66,0,0,0,0,0
1576868673843.75,-51,26,54,0,0,0,0,0
1576868673875,-58,35,40,0,0,0,0,0
1576868673906.25,-72,28,33,0,0,0,0,0
1576868673937.5,-67,14,27,0,0,0,0,0
1576868673968.75,-63,3,29,0,0,0,0,0
1576868674000,-62,-1,23,0,0,0,0,0
1576868674031.25,-72,-8,-21,0,0,0,0,0
1576868674062.5,-83,-9,-31,0,0,0,0,0
1576868674093.75,-64,-6,-16,0,0,0,0,0
1576868674125,-50,-8,-5,0,0,0,0,0
1576868674156.25,-39,-13,-3,0,0,0,0,0
1576868674187.5,-44,-13,-7,0,0,0,0,0
1576868674218.75,-48,-15,-8,0,0,0,0,0
1576868674250,-50,-14,-6,0,0,0,0,0
1576868674281.25,-44,-18,1,0,0,0,0,0
1576868674312.5,-44,-19,3,0,0,0,0,0
1576868674343.75,-37,-22,10,0,0,0,0,0
1576868674375,-32,-23,14,0,0,0,0,0
1576868674406.25,-44,-19,6,0,0,0,0,0
1576868674437.5,-62,-14,5,0,0,0,0,0
1576868674468.75,-67,-11,13,0,0,0,0,0
1576868674500,-68,-10,25,0,0,0,0,0
1576868674531.25,-60,-13,26,0,0,0,0,0
1576868674562.5,-55,-17,15,0,0,0,0,0
1576868674593.75,-59,-17,15,0,0,0,0,0
1576868674625,-71,-9,35,0,0,0,0,0
1576868674656.25,-97,-14,34,0,0,0,0,0
1576868674687.5,-40,-15,43,0,0,0,0,0
1576868674718.75,-45,-14,32,0,0,0,0,0
1576868674750,-58,-9,28,0,0,0,0,0
1576868674781.25,-55,-9,32,0,0,0,0,0
1576868674812.5,-48,-11,34,0,0,0,0,0
1576868674843.75,-57,-12,31,0,0,0,0,0
1576868674875,-53,-13,33,0,0,0,0,0
1576868674906.25,-49,-21,25,0,0,0,0,0
1576868674937.5,-51,-22,20,0,0,0,0,0
1576868674968.75,-53,-21,14,0,0,0,0,0
1576868675000,-64,-18,4,0,0,0,0,0
1576868675031.25,-66,-18,-1,0,0,0,0,0
1576868675062.5,-58,-21,4,0,0,0,0,0
1576868675093.75,-50,-22,11,0,0,0,0,0
1576868675125,-58,-18,7,0,0,0,0,0
1576868675156.25,-57,-12,8,0,0,0,0,0
1576868675187.5,-53,-12,8,0,0,0,0,0
1576868675218.75,-66,-1,15,0,0,0,0,0
1576868675250,-73,12,23,0,0,0,0,0
1576868675281.25,-68,17,23,0,0,0,0,0
1576868675312.5,-59,26,31,0,0,0,0,0
1576868675343.75,-47,26,42,0,0,0,0,0
1576868675375,-42,32,35,0,0,0,0,0
1576868675406.25,-22,31,34,0,0,0,0,0
1576868675437.5,35,25,48,0,0,0,0,0
1576868675468.75,28,36,52,0,0,0,0,0
1576868675500,-5,46,60,0,0,0,0,0
1576868675531.25,-8,43,41,0,0,0,0,0
1576868675562.5,41,37,23,0,0,0,0,0
1576868675593.75,71,49,90,0,0,0,0,0
1576868675625,34,39,32,0,0,0,0,0
1576868675656.25,44,43,35,0,0,0,0,0
1576868675687.5,32,44,35,0,0,0,0,0
1576868675718.75,29,44,34,0,0,0,0,0
1576868675750,37,50,35,0,0,0,0,0
1576868675781.25,52,50,40,0,0,0,0,0
1576868675812.5,43,48,35,0,0,0,0,0
1576868675843.75,31,43,36,0,0,0,0,0
1576868675875,34,41,42,0,0,0,0,0
1576868675906.25,14,39,51,0,0,0,0,0
1576868675937.5,4,36,67,0,0,0,0,0
1576868675968.75,-13,27,75,0,0,0,0,0
1576868676000,-18,22,78,0,0,0,0,0
1576868676031.25,-12,23,79,0,0,0,0,0
1576868676062.5,-3,27,81,0,0,0,0,0
1576868676093.75,-1,28,84,0,0,0,0,0
1576868676125,6,8,89,0,0,0,0,0
1576868676156.25,-6,-93,81,0,0,0,0,0
1576868676187.5,-1,16,75,0,0,0,0,0
1576868676218.75,-16,21,56,0,0,0,0,0
1576868676250,-47,13,33,0,0,0,0,0
1576868676281.25,-11,5,17,0,0,0,0,0
1576868676312.5,-8,-4,16,0,0,0,0,0
1576868676343.75,6,-39,38,0,0,0,0,0
1576868676375,-9,7,46,0,0,0,0,0
1576868676406.25,-17,-5,64,0,0,0,0,0
1576868676437.5,-24,1,68,0,0,0,0,0
1576868676468.75,-30,-2,48,0,0,0,0,0
1576868676500,32,-3,70,0,0,0,0,0
1576868676531.25,16,-17,64,0,0,0,0,0
1576868676562.5,6,-20,61,0,0,0,0,0
1576868676593.75,-15,-9,49,0,0,0,0,0
1576868676625,-22,-5,43,0,0,0,0,0
1576868676656.25,-25,2,47,0,0,0,0,0
1576868676687.5,-23,4,61,0,0,0,0,0
1576868676718.75,-4,10,61,0,0,0,0,0
1576868676750,8,14,61,0,0,0,0,0
1576868676781.25,32,19,90,0,0,0,0,0
1576868676812.5,-14,27,77,0,0,0,0,0
1576868676843.75,-32,26,56,0,0,0,0,0
1576868676875,-22,21,43,0,0,0,0,0
1576868676906.25,-24,23,47,0,0,0,0,0
1576868676937.5,-21,28,47,0,0,0,0,0
1576868676968.75,-26,32,46,0,0,0,0,0
1576868677000,-58,45,3,0,0,0,0,0
1576868677031.25,-54,39,13,0,0,0,0,0
1576868677062.5,-38,43,31,0,0,0,0,0
1576868677093.75,-20,42,45,0,0,0,0,0
1576868677125,-47,39,8,0,0,0,0,0
1576868677156.25,-50,38,8,0,0,0,0,0
1576868677187.5,-55,42,19,0,0,0,0,0
1576868677218.75,-49,48,29,0,0,0,0,0
1576868677250,-48,47,25,0,0,0,0,0
1576868677281.25,-61,53,1,0,0,0,0,0
1576868677312.5,-55,50,4,0,0,0,0,0
1576868677343.75,-42,54,26,0,0,0,0,0
1576868677375,-47,54,23,0,0,0,0,0
1576868677406.25,-48,52,24,0,0,0,0,0
1576868677437.5,-34,50,29,0,0,0,0,0
1576868677468.75,-38,49,34,0,0,0,0,0
1576868677500,-44,48,29,0,0,0,0,0
1576868677531.25,-42,42,30,0,0,0,0,0
1576868677562.5,-31,43,39,0,0,0,0,0
1576868677593.75,-17,38,47,0,0,0,0,0
1576868677625,-58,38,26,0,0,0,0,0
1576868677656.25,-44,36,23,0,0,0,0,0
1576868677687.5,-43,31,30,0,0,0,0,0
1576868677718.75,-33,32,43,0,0,0,0,0
1576868677750,-23,32,44,0,0,0,0,0
1576868677781.25,-17,34,43,0,0,0,0,0
1576868677812.5,-21,34,31,0,0,0,0,0
1576868677843.75,-1,32,42,0,0,0,0,0
1576868677875,-14,37,48,0,0,0,0,0
1576868677906.25,-10,40,55,0,0,0,0,0
1576868677937.5,-11,39,57,0,0,0,0,0
1576868677968.75,10,40,62,0,0,0,0,0
1576868678000,9,39,62,0,0,0,0,0
1576868678031.25,-9,42,55,0,0,0,0,0
1576868678062.5,-16,42,50,0,0,0,0,0
1576868678093.75,-12,38,59,0,0,0,0,0
1576868678125,-16,34,49,0,0,0,0,0
1576868678156.25,-26,12,33,0,0,0,0,0
1576868678187.5,-20,39,45,0,0,0,0,0
1576868678218.75,-17,36,50,0,0,0,0,0
1576868678250,-13,36,46,0,0,0,0,0
1576868678281.25,-7,29,46,0,0,0,0,0
1576868678312.5,-23,30,40,0,0,0,0,0
1576868678343.75,-9,42,49,0,0,0,0,0
1576868678375,-26,41,43,0,0,0,0,0
1576868678406.25,-18,31,45,0,0,0,0,0
1576868678437.5,-31,25,34,0,0,0,0,0
1576868678468.75,-46,33,38,0,0,0,0,0
1576868678500,-65,49,35,0,0,0,0,0
1576868678531.25,-64,55,36,0,0,0,0,0
1576868678562.5,-49,40,31,0,0,0,0,0
1576868678593.75,-60,43,21,0,0,0,0,0
1576868678625,-24,42,45,0,0,0,0,0
1576868678656.25,-38,45,35,0,0,0,0,0
1576868678687.5,-27,49,26,0,0,0,0,0
1576868678718.75,-6,46,35,0,0,0,0,0
1576868678750,-9,48,48,0,0,0,0,0
1576868678781.25,-10,48,49,0,0,0,0,0
1576868678812.5,-24,45,49,0,0,0,0,0
1576868678843.75,-32,41,43,0,0,0,0,0
1576868678875,-31,39,40,0,0,0,0,0
1576868678906.25,-32,38,33,0,0,0,0,0
1576868678937.5,-33,36,31,0,0,0,0,0
1576868678968.75,-27,35,33,0,0,0,0,0
1576868679000,-20,36,40,0,0,0,0,0
1576868679031.25,-9,39,47,0,0,0,0,0
1576868679062.5,-16,42,47,0,0,0,0,0
1576868679093.75,-10,43,51,0,0,0,0,0
1576868679125,-11,44,49,0,0,0,0,0
1576868679156.25,-7,43,50,0,0,0,0,0
1576868679187.5,-10,44,47,0,0,0,0,0
1576868679218.75,-4,45,54,0,0,0,0,0
1576868679250,4,44,58,0,0,0,0,0
1576868679281.25,2,41,53,0,0,0,0,0
1576868679312.5,13,39,51,0,0,0,0,0
1576868679343.75,12,35,40,0,0,0,0,0
1576868679375,20,41,50,0,0,0,0,0
1576868679406.25,17,41,54,0,0,0,0,0
1576868679437.5,20,39,51,0,0,0,0,0
1576868679468.75,17,39,54,0,0,0,0,0
1576868679500,9,39,52,0,0,0,0,0
1576868679531.25,7,38,52,0,0,0,0,0
1576868679562.5,5,36,49,0,0,0,0,0
1576868679593.75,-7,36,43,0,0,0,0,0
1576868679625,-11,36,41,0,0,0,0,0
1576868679656.25,-10,31,34,0,0,0,0,0
1576868679687.5,-9,34,40,0,0,0,0,0
1576868679718.75,-19,43,50,0,0,0,0,0
1576868679750,-24,39,51,0,0,0,0,0
1576868679781.25,-20,39,52,0,0,0,0,0
1576868679812.5,-27,39,52,0,0,0,0,0
1576868679843.75,-26,36,36,0,0,0,0,0
1576868679875,-28,37,31,0,0,0,0,0
1576868679906.25,-30,36,41,0,0,0,0,0
1576868679937.5,-17,33,49,0,0,0,0,0
1576868679968.75,-17,35,52,0,0,0,0,0
1576868680000,-20,36,45,0,0,0,0,0
1576868680031.25,-23,35,42,0,0,0,0,0
1576868680062.5,-20,36,42,0,0,0,0,0
1576868680093.75,-23,35,40,0,0,0,0,0
1576868680125,-23,38,41,0,0,0,0,0
1576868680156.25,-16,38,45,0,0,0,0,0
1576868680187.5,-6,44,57,0,0,0,0,0
1576868680218.75,1,43,60,0,0,0,0,0
1576868680250,-10,44,54,0,0,0,0,0
1576868680281.25,-12,43,50,0,0,0,0,0
1576868680312.5,-17,45,50,0,0,0,0,0
1576868680343.75,-14,48,51,0,0,0,0,0
1576868680375,-20,43,40,0,0,0,0,0
1576868680406.25,-23,45,48,0,0,0,0,0
1576868680437.5,-8,39,48,0,0,0,0,0
1576868680468.75,2,47,48,0,0,0,0,0
1576868680500,-5,50,47,0,0,0,0,0
1576868680531.25,-2,51,42,0,0,0,0,0
1576868680562.5,5,50,49,0,0,0,0,0
1576868680593.75,-11,47,55,0,0,0,0,0
1576868680625,-12,46,55,0,0,0,0,0
1576868680656.25,8,36,58,0,0,0,0,0
1576868680687.5,1,32,55,0,0,0,0,0
1576868680718.75,-7,36,56,0,0,0,0,0
1576868680750,5,39,59,0,0,0,0,0
1576868680781.25,10,48,56,0,0,0,0,0
1576868680812.5,1,48,48,0,0,0,0,0
1576868680843.75,4,48,49,0,0,0,0,0
1576868680875,-4,50,53,0,0,0,0,0
1576868680906.25,-12,51,53,0,0,0,0,0
1576868680937.5,-32,50,50,0,0,0,0,0
1576868680968.75,-43,47,47,0,0,0,0,0
1576868681000,-32,36,58,0,0,0,0,0
1576868681031.25,-18,30,62,0,0,0,0,0
1576868681062.5,-50,23,69,0,0,0,0,0
1576868681093.75,-42,21,57,0,0,0,0,0
1576868681125,3,16,56,0,0,0,0,0
1576868681156.25,9,14,58,0,0,0,0,0
1576868681187.5,13,11,57,0,0,0,0,0
1576868681218.75,1,15,53,0,0,0,0,0
1576868681250,11,9,52,0,0,0,0,0
1576868681281.25,24,6,41,0,0,0,0,0
1576868681312.5,20,3,35,0,0,0,0,0
1576868681343.75,34,13,31,0,0,0,0,0
1576868681375,24,25,33,0,0,0,0,0
1576868681406.25,-2,45,53,0,0,0,0,0
1576868681437.5,6,48,57,0,0,0,0,0
1576868681468.75,22,48,59,0,0,0,0,0
1576868681500,38,42,53,0,0,0,0,0
1576868681531.25,-3,26,35,0,0,0,0,0
1576868681562.5,6,46,51,0,0,0,0,0
1576868681593.75,2,42,58,0,0,0,0,0
1576868681625,-5,37,53,0,0,0,0,0
1576868681656.25,-2,38,52,0,0,0,0,0
1576868681687.5,0,39,52,0,0,0,0,0
1576868681718.75,4,38,54,0,0,0,0,0
1576868681750,1,39,50,0,0,0,0,0
1576868681781.25,4,38,49,0,0,0,0,0
1576868681812.5,23,39,58,0,0,0,0,0
1576868681843.75,17,39,56,0,0,0,0,0
1576868681875,14,39,53,0,0,0,0,0
1576868681906.25,6,37,47,0,0,0,0,0
1576868681937.5,1,41,44,0,0,0,0,0
1576868681968.75,5,44,47,0,0,0,0,0
1576868682000,28,42,56,0,0,0,0,0
1576868682031.25,23,47,58,0,0,0,0,0
1576868682062.5,26,49,58,0,0,0,0,0
1576868682093.75,16,47,38,0,0,0,0,0
1576868682125,7,51,39,0,0,0,0,0
1576868682156.25,4,51,49,0,0,0,0,0
1576868682187.5,12,49,54,0,0,0,0,0
1576868682218.75,10,47,57,0,0,0,0,0
1576868682250,7,48,58,0,0,0,0,0
1576868682281.25,2,39,53,0,0,0,0,0
1576868682312.5,7,44,51,0,0,0,0,0
1576868682343.75,-27,4,50,0,0,0,0,0
1576868682375,-4,34,59,0,0,0,0,0
1576868682406.25,-15,32,54,0,0,0,0,0
1576868682437.5,-8,32,57,0,0,0,0,0
1576868682468.75,-10,30,54,0,0,0,0,0
1576868682500,-14,26,52,0,0,0,0,0
1576868682531.25,-13,25,53,0,0,0,0,0
1576868682562.5,-15,22,51,0,0,0,0,0
1576868682593.75,-19,21,45,0,0,0,0,0
1576868682625,-18,19,39,0,0,0,0,0
1576868682656.25,-13,21,39,0,0,0,0,0
1576868682687.5,-20,18,41,0,0,0,0,0
1576868682718.75,-37,-74,66,0,0,0,0,0
1576868682750,-9,69,78,0,0,0,0,0
1576868682781.25,8,32,51,0,0,0,0,0
1576868682812.5,-3,33,39,0,0,0,0,0
1576868682843.75,-8,31,42,0,0,0,0,0
1576868682875,-11,31,47,0,0,0,0,0
1576868682906.25,-4,35,60,0,0,0,0,0
1576868682937.5,2,33,55,0,0,0,0,0
1576868682968.75,10,34,48,0,0,0,0,0
1576868683000,19,36,58,0,0,0,0,0
1576868683031.25,21,39,68,0,0,0,0,0
1576868683062.5,21,37,69,0,0,0,0,0
1576868683093.75,15,35,62,0,0,0,0,0
1576868683125,14,34,62,0,0,0,0,0
1576868683156.25,3,33,59,0,0,0,0,0
1576868683187.5,-4,35,55,0,0,0,0,0
1576868683218.75,-6,36,55,0,0,0,0,0
1576868683250,-9,37,52,0,0,0,0,0
1576868683281.25,-17,38,45,0,0,0,0,0
1576868683312.5,-12,38,52,0,0,0,0,0
1576868683343.75,-11,38,54,0,0,0,0,0
1576868683375,-10,37,49,0,0,0,0,0
1576868683406.25,-11,36,51,0,0,0,0,0
1576868683437.5,-10,33,51,0,0,0,0,0
1576868683468.75,-5,32,52,0,0,0,0,0
1576868683500,3,31,56,0,0,0,0,0
1576868683531.25,5,29,46,0,0,0,0,0
1576868683562.5,-1,32,48,0,0,0,0,0
1576868683593.75,4,36,63,0,0,0,0,0
1576868683625,7,37,68,0,0,0,0,0
1576868683656.25,2,33,60,0,0,0,0,0
1576868683687.5,1,29,56,0,0,0,0,0
1576868683718.75,17,24,36,0,0,0,0,0
1576868683750,12,33,31,0,0,0,0,0
1576868683781.25,6,44,57,0,0,0,0,0
1576868683812.5,14,45,62,0,0,0,0,0
1576868683843.75,24,43,56,0,0,0,0,0
1576868683875,16,41,57,0,0,0,0,0
1576868683906.25,1,39,58,0,0,0,0,0
1576868683937.5,6,36,61,0,0,0,0,0
1576868683968.75,10,31,57,0,0,0,0,0
1576868684000,13,29,64,0,0,0,0,0
1576868684031.25,11,27,59,0,0,0,0,0
1576868684062.5,4,28,56,0,0,0,0,0
1576868684093.75,0,29,59,0,0,0,0,0
1576868684125,-3,27,54,0,0,0,0,0
1576868684156.25,-6,25,49,0,0,0,0,0
1576868684187.5,-3,22,55,0,0,0,0,0
1576868684218.75,1,14,56,0,0,0,0,0
1576868684250,0,23,51,0,0,0,0,0
1576868684281.25,2,26,55,0,0,0,0,0
1576868684312.5,-2,28,55,0,0,0,0,0
1576868684343.75,1,28,55,0,0,0,0,0
1576868684375,7,29,60,0,0,0,0,0
1576868684406.25,4,29,56,0,0,0,0,0
1576868684437.5,5,29,56,0,0,0,0,0
1576868684468.75,7,30,59,0,0,0,0,0
1576868684500,8,29,59,0,0,0,0,0
1576868684531.25,9,28,57,0,0,0,0,0
1576868684562.5,8,28,56,0,0,0,0,0
1576868684593.75,4,31,56,0,0,0,0,0
1576868684625,5,33,58,0,0,0,0,0
1576868684656.25,0,30,53,0,0,0,0,0
1576868684687.5,-4,29,51,0,0,0,0,0
1576868684718.75,-15,28,40,0,0,0,0,0
1576868684750,-8,29,44,0,0,0,0,0
1576868684781.25,12,32,39,0,0,0,0,0
1576868684812.5,29,38,54,0,0,0,0,0
1576868684843.75,-10,37,50,0,0,0,0,0
1576868684875,3,51,75,0,0,0,0,0
1576868684906.25,8,48,84,0,0,0,0,0
1576868684937.5,-12,40,62,0,0,0,0,0
1576868684968.75,-3,39,56,0,0,0,0,0
1576868685000,-12,40,44,0,0,0,0,0
1576868685031.25,-16,39,41,0,0,0,0,0
1576868685062.5,-17,42,43,0,0,0,0,0
1576868685093.75,-19,41,40,0,0,0,0,0
1576868685125,-16,48,41,0,0,0,0,0
1576868685156.25,-14,47,43,0,0,0,0,0
1576868685187.5,-6,40,52,0,0,0,0,0
1576868685218.75,16,39,57,0,0,0,0,0
1576868685250,11,40,55,0,0,0,0,0
1576868685281.25,3,45,52,0,0,0,0,0
1576868685312.5,-1,46,49,0,0,0,0,0
1576868685343.75,-6,52,50,0,0,0,0,0
1576868685375,-12,50,47,0,0,0,0,0
1576868685406.25,-9,47,56,0,0,0,0,0
1576868685437.5,-10,45,62,0,0,0,0,0
1576868685468.75,-6,40,63,0,0,0,0,0
1576868685500,-7,38,61,0,0,0,0,0
1576868685531.25,0,33,58,0,0,0,0,0
1576868685562.5,-9,32,52,0,0,0,0,0
1576868685593.75,-7,33,58,0,0,0,0,0
1576868685625,-2,32,59,0,0,0,0,0
1576868685656.25,-11,30,50,0,0,0,0,0
1576868685687.5,-11,30,50,0,0,0,0,0
1576868685718.75,-9,30,53,0,0,0,0,0
1576868685750,-8,29,55,0,0,0,0,0
1576868685781.25,-9,27,52,0,0,0,0,0
1576868685812.5,-18,25,32,0,0,0,0,0
1576868685843.75,-8,28,42,0,0,0,0,0
1576868685875,-4,29,58,0,0,0,0,0
1576868685906.25,-3,28,55,0,0,0,0,0
1576868685937.5,0,27,52,0,0,0,0,0
1576868685968.75,6,28,61,0,0,0,0,0
1576868686000,7,27,60,0,0,0,0,0
1576868686031.25,12,27,57,0,0,0,0,0
1576868686062.5,11,28,60,0,0,0,0,0
1576868686093.75,10,30,63,0,0,0,0,0
1576868686125,9,30,63,0,0,0,0,0
1576868686156.25,6,32,66,0,0,0,0,0
1576868686187.5,5,31,66,0,0,0,0,0
1576868686218.75,4,30,66,0,0,0,0,0
1576868686250,3,29,68,0,0,0,0,0
1576868686281.25,3,26,66,0,0,0,0,0
1576868686312.5,3,24,66,0,0,0,0,0
1576868686343.75,2,22,65,0,0,0,0,0
1576868686375,0,21,61,0,0,0,0,0
1576868686406.25,1,20,64,0,0,0,0,0
1576868686437.5,0,18,62,0,0,0,0,0
1576868686468.75,-1,17,59,0,0,0,0,0
1576868686500,-2,16,61,0,0,0,0,0
1576868686531.25,-1,15,62,0,0,0,0,0
1576868686562.5,-3,12,58,0,0,0,0,0
1576868686593.75,-2,12,62,0,0,0,0,0
1576868686625,0,9,64,0,0,0,0,0
1576868686656.25,-1,7,61,0,0,0,0,0
1576868686687.5,1,6,65,0,0,0,0,0
1576868686718.75,3,5,66,0,0,0,0,0
1576868686750,2,3,64,0,0,0,0,0
1576868686781.25,2,3,66,0,0,0,0,0
1576868686812.5,3,0,67,0,0,0,0,0
1576868686843.75,4,-3,65,0,0,0,0,0
1576868686875,5,-4,67,0,0,0,0,0
1576868686906.25,5,-6,67,0,0,0,0,0
1576868686937.5,6,-8,66,0,0,0,0,0
1576868686968.75,5,-10,63,0,0,0,0,0
1576868687000,5,-11,63,0,0,0,0,0
1576868687031.25,2,-12,60,0,0,0,0,0
1576868687062.5,1,-12,59,0,0,0,0,0
1576868687093.75,-3,-14,58,0,0,0,0,0
1576868687125,-6,-15,58,0,0,0,0,0
1576868687156.25,-5,-18,56,0,0,0,0,0
1576868687187.5,-5,-19,53,0,0,0,0,0
1576868687218.75,-4,-19,52,0,0,0,0,0
1576868687250,-4,-18,55,0,0,0,0,0
1576868687281.25,-4,-17,57,0,0,0,0,0
1576868687312.5,-1,-17,57,0,0,0,0,0
1576868687343.75,-6,-14,53,0,0,0,0,0
1576868687375,-14,-7,51,0,0,0,0,0
1576868687406.25,-16,-1,59,0,0,0,0,0
1576868687437.5,-8,7,74,0,0,0,0,0
1576868687468.75,-1,7,72,0,0,0,0,0
1576868687500,-13,8,53,0,0,0,0,0
1576868687531.25,-24,9,59,0,0,0,0,0
1576868687562.5,-20,3,71,0,0,0,0,0
1576868687593.75,-16,-11,69,0,0,0,0,0
1576868687625,-15,-15,68,0,0,0,0,0
1576868687656.25,-11,-19,70,0,0,0,0,0
1576868687687.5,-10,-18,70,0,0,0,0,0
1576868687718.75,-7,-17,66,0,0,0,0,0
1576868687750,-5,-16,66,0,0,0,0,0
1576868687781.25,-2,-15,64,0,0,0,0,0
1576868687812.5,-4,-15,59,0,0,0,0,0
1576868687843.75,-21,-13,45,0,0,0,0,0
1576868687875,-21,-12,43,0,0,0,0,0
1576868687906.25,-7,-10,56,0,0,0,0,0
1576868687937.5,-9,-10,59,0,0,0,0,0
1576868687968.75,-7,-8,60,0,0,0,0,0
1576868688000,-4,-5,58,0,0,0,0,0
1576868688031.25,-3,-3,60,0,0,0,0,0
1576868688062.5,-1,0,63,0,0,0,0,0
1576868688093.75,-1,2,64,0,0,0,0,0
1576868688125,6,4,70,0,0,0,0,0
1576868688156.25,5,2,66,0,0,0,0,0
1576868688187.5,5,2,66,0,0,0,0,0
1576868688218.75,3,3,65,0,0,0,0,0
1576868688250,-1,8,70,0,0,0,0,0
1576868688281.25,1,13,73,0,0,0,0,0
1576868688312.5,6,14,66,0,0,0,0,0
1576868688343.75,15,14,66,0,0,0,0,0
1576868688375,25,11,64,0,0,0,0,0
1576868688406.25,27,8,64,0,0,0,0,0
1576868688437.5,24,8,64,0,0,0,0,0
1576868688468.75,21,8,59,0,0,0,0,0
1576868688500,19,8,58,0,0,0,0,0
1576868688531.25,18,11,62,0,0,0,0,0
1576868688562.5,19,13,65,0,0,0,0,0
1576868688593.75,24,13,62,0,0,0,0,0
1576868688625,25,14,59,0,0,0,0,0
1576868688656.25,26,15,60,0,0,0,0,0
1576868688687.5,22,16,61,0,0,0,0,0
1576868688718.75,9,17,67,0,0,0,0,0
1576868688750,5,18,67,0,0,0,0,0
1576868688781.25,8,18,61,0,0,0,0,0
1576868688812.5,9,17,59,0,0,0,0,0
1576868688843.75,8,17,57,0,0,0,0,0
1576868688875,6,17,56,0,0,0,0,0
1576868688906.25,7,18,56,0,0,0,0,0
1576868688937.5,9,21,58,0,0,0,0,0
1576868688968.75,10,21,59,0,0,0,0,0
1576868689000,12,22,59,0,0,0,0,0
1576868689031.25,12,22,60,0,0,0,0,0
1576868689062.5,11,22,61,0,0,0,0,0
1576868689093.75,11,21,61,0,0,0,0,0
1576868689125,9,22,59,0,0,0,0,0
1576868689156.25,9,22,59,0,0,0,0,0
1576868689187.5,7,21,58,0,0,0,0,0
1576868689218.75,4,21,58,0,0,0,0,0
1576868689250,5,22,58,0,0,0,0,0
1576868689281.25,7,23,59,0,0,0,0,0
1576868689312.5,8,24,60,0,0,0,0,0
1576868689343.75,9,26,62,0,0,0,0,0
1576868689375,9,28,63,0,0,0,0,0
1576868689406.25,8,28,63,0,0,0,0,0
1576868689437.5,8,27,63,0,0,0,0,0
1576868689468.75,7,26,62,0,0,0,0,0
1576868689500,7,25,61,0,0,0,0,0
1576868689531.25,6,25,59,0,0,0,0,0
1576868689562.5,6,24,59,0,0,0,0,0
1576868689593.75,5,23,58,0,0,0,0,0
1576868689625,4,22,58,0,0,0,0,0
1576868689656.25,3,22,57,0,0,0,0,0
1576868689687.5,3,23,59,0,0,0,0,0
1576868689718.75,4,23,59,0,0,0,0,0
1576868689750,3,20,58,0,0,0,0,0
1576868689781.25,2,19,57,0,0,0,0,0
1576868689812.5,5,19,58,0,0,0,0,0
1576868689843.75,5,20,57,0,0,0,0,0
1576868689875,8,23,57,0,0,0,0,0
1576868689906.25,9,24,57,0,0,0,0,0
1576868689937.5,21,24,54,0,0,0,0,0
1576868689968.75,23,24,50,0,0,0,0,0
1576868690000,27,24,46,0,0,0,0,0
1576868690031.25,20,27,50,0,0,0,0,0
1576868690062.5,19,29,56,0,0,0,0,0
1576868690093.75,5,33,61,0,0,0,0,0
1576868690125,-10,35,64,0,0,0,0,0
1576868690156.25,-15,40,51,0,0,0,0,0
1576868690187.5,-34,42,35,0,0,0,0,0
1576868690218.75,-54,42,39,0,0,0,0,0
1576868690250,-42,43,49,0,0,0,0,0
1576868690281.25,-31,40,49,0,0,0,0,0
1576868690312.5,-21,40,54,0,0,0,0,0
1576868690343.75,-2,39,66,0,0,0,0,0
1576868690375,-7,39,62,0,0,0,0,0
1576868690406.25,-8,43,46,0,0,0,0,0
1576868690437.5,-32,47,46,0,0,0,0,0
1576868690468.75,-31,48,48,0,0,0,0,0
1576868690500,-31,45,46,0,0,0,0,0
1576868690531.25,-34,44,43,0,0,0,0,0
1576868690562.5,-34,38,40,0,0,0,0,0
1576868690593.75,-31,37,34,0,0,0,0,0
1576868690625,-35,33,29,0,0,0,0,0
1576868690656.25,-36,36,25,0,0,0,0,0
1576868690687.5,-47,37,21,0,0,0,0,0
1576868690718.75,-51,36,20,0,0,0,0,0
1576868690750,-53,37,25,0,0,0,0,0
1576868690781.25,-14,43,49,0,0,0,0,0
1576868690812.5,-14,42,52,0,0,0,0,0
1576868690843.75,-37,37,42,0,0,0,0,0
1576868690875,-44,41,37,0,0,0,0,0
1576868690906.25,-45,36,33,0,0,0,0,0
1576868690937.5,-49,37,29,0,0,0,0,0
1576868690968.75,-43,33,18,0,0,0,0,0
1576868691000,-41,32,12,0,0,0,0,0
1576868691031.25,-43,31,5,0,0,0,0,0
1576868691062.5,-45,32,3,0,0,0,0,0
1576868691093.75,-51,37,-6,0,0,0,0,0
1576868691125,-55,39,-7,0,0,0,0,0
1576868691156.25,-62,44,3,0,0,0,0,0
1576868691187.5,-67,43,6,0,0,0,0,0
1576868691218.75,-66,43,-2,0,0,0,0,0
1576868691250,-75,37,-13,0,0,0,0,0
1576868691281.25,-66,37,-4,0,0,0,0,0
1576868691312.5,-27,30,18,0,0,0,0,0
1576868691343.75,-29,28,22,0,0,0,0,0
1576868691375,-53,33,20,0,0,0,0,0
1576868691406.25,-48,34,17,0,0,0,0,0
1576868691437.5,-52,28,6,0,0,0,0,0
1576868691468.75,-52,26,6,0,0,0,0,0
1576868691500,-53,23,2,0,0,0,0,0
1576868691531.25,-46,29,7,0,0,0,0,0
1576868691562.5,-53,38,19,0,0,0,0,0
1576868691593.75,-57,35,28,0,0,0,0,0
1576868691625,-44,31,35,0,0,0,0,0
1576868691656.25,-17,34,52,0,0,0,0,0
1576868691687.5,-16,36,52,0,0,0,0,0
1576868691718.75,-43,37,36,0,0,0,0,0
1576868691750,-46,37,29,0,0,0,0,0
1576868691781.25,-39,35,28,0,0,0,0,0
1576868691812.5,-23,34,36,0,0,0,0,0
1576868691843.75,-37,32,30,0,0,0,0,0
1576868691875,-62,38,23,0,0,0,0,0
1576868691906.25,-67,42,22,0,0,0,0,0
1576868691937.5,-56,41,25,0,0,0,0,0
1576868691968.75,-50,39,24,0,0,0,0,0
1576868692000,-30,42,32,0,0,0,0,0
1576868692031.25,-21,42,44,0,0,0,0,0
1576868692062.5,-11,39,62,0,0,0,0,0
1576868692093.75,-16,36,58,0,0,0,0,0
1576868692125,-22,34,53,0,0,0,0,0
1576868692156.25,-20,36,51,0,0,0,0,0
1576868692187.5,-18,33,39,0,0,0,0,0
1576868692218.75,-22,35,40,0,0,0,0,0
1576868692250,-22,33,42,0,0,0,0,0
1576868692281.25,-19,33,43,0,0,0,0,0
1576868692312.5,-20,35,42,0,0,0,0,0
1576868692343.75,-21,37,45,0,0,0,0,0
1576868692375,-22,42,51,0,0,0,0,0
1576868692406.25,-27,40,45,0,0,0,0,0
1576868692437.5,-29,40,39,0,0,0,0,0
1576868692468.75,-37,43,38,0,0,0,0,0
1576868692500,-43,46,38,0,0,0,0,0
1576868692531.25,-29,42,49,0,0,0,0,0
1576868692562.5,-22,41,51,0,0,0,0,0
1576868692593.75,-21,39,53,0,0,0,0,0
1576868692625,-19,37,54,0,0,0,0,0
1576868692656.25,-17,33,50,0,0,0,0,0
1576868692687.5,-22,31,47,0,0,0,0,0
1576868692718.75,-22,31,45,0,0,0,0,0
1576868692750,-21,34,47,0,0,0,0,0
1576868692781.25,-16,37,46,0,0,0,0,0
1576868692812.5,-20,38,36,0,0,0,0,0
1576868692843.75,-28,40,33,0,0,0,0,0
1576868692875,-32,45,34,0,0,0,0,0
1576868692906.25,-25,47,39,0,0,0,0,0
1576868692937.5,-28,54,43,0,0,0,0,0
1576868692968.75,-48,58,34,0,0,0,0,0
1576868693000,-49,50,23,0,0,0,0,0
1576868693031.25,-49,46,26,0,0,0,0,0
1576868693062.5,-46,42,30,0,0,0,0,0
1576868693093.75,-42,38,31,0,0,0,0,0
1576868693125,-33,38,38,0,0,0,0,0
1576868693156.25,-33,38,40,0,0,0,0,0
1576868693187.5,-40,35,38,0,0,0,0,0
1576868693218.75,-38,34,36,0,0,0,0,0
1576868693250,-35,35,41,0,0,0,0,0
1576868693281.25,-39,35,36,0,0,0,0,0
1576868693312.5,-47,37,36,0,0,0,0,0
1576868693343.75,-30,37,49,0,0,0,0,0
1576868693375,-38,37,41,0,0,0,0,0
1576868693406.25,-42,40,35,0,0,0,0,0
1576868693437.5,-29,43,52,0,0,0,0,0
1576868693468.75,-17,40,62,0,0,0,0,0
1576868693500,-24,37,54,0,0,0,0,0
1576868693531.25,-35,38,46,0,0,0,0,0
1576868693562.5,-34,36,46,0,0,0,0,0
1576868693593.75,-25,30,44,0,0,0,0,0
1576868693625,-35,27,31,0,0,0,0,0
1576868693656.25,-30,25,28,0,0,0,0,0
1576868693687.5,1,28,43,0,0,0,0,0
1576868693718.75,8,27,47,0,0,0,0,0
1576868693750,16,25,48,0,0,0,0,0
1576868693781.25,21,29,50,0,0,0,0,0
1576868693812.5,21,36,58,0,0,0,0,0
1576868693843.75,21,38,63,0,0,0,0,0
1576868693875,19,38,68,0,0,0,0,0
1576868693906.25,23,36,65,0,0,0,0,0
1576868693937.5,11,37,57,0,0,0,0,0
1576868693968.75,6,35,59,0,0,0,0,0
1576868694000,3,34,58,0,0,0,0,0
1576868694031.25,-1,30,54,0,0,0,0,0
1576868694062.5,-3,31,55,0,0,0,0,0
1576868694093.75,-2,30,53,0,0,0,0,0
1576868694125,-1,30,52,0,0,0,0,0
1576868694156.25,1,32,50,0,0,0,0,0
1576868694187.5,-2,33,50,0,0,0,0,0
1576868694218.75,0,34,52,0,0,0,0,0
1576868694250,7,34,50,0,0,0,0,0
1576868694281.25,25,33,53,0,0,0,0,0
1576868694312.5,27,32,51,0,0,0,0,0
1576868694343.75,24,27,44,0,0,0,0,0
1576868694375,22,23,46,0,0,0,0,0
1576868694406.25,17,24,44,0,0,0,0,0
1576868694437.5,-15,46,62,0,0,0,0,0
1576868694468.75,-23,48,68,0,0,0,0,0
1576868694500,-25,35,62,0,0,0,0,0
1576868694531.25,-22,31,49,0,0,0,0,0
1576868694562.5,-35,41,24,0,0,0,0,0
1576868694593.75,-46,45,18,0,0,0,0,0
1576868694625,-58,47,26,0,0,0,0,0
1576868694656.25,-34,46,43,0,0,0,0,0
1576868694687.5,-38,41,47,0,0,0,0,0
1576868694718.75,-41,41,42,0,0,0,0,0
1576868694750,-41,39,38,0,0,0,0,0
1576868694781.25,-36,35,38,0,0,0,0,0
1576868694812.5,-27,37,41,0,0,0,0,0
1576868694843.75,-27,38,39,0,0,0,0,0
1576868694875,-28,40,38,0,0,0,0,0
1576868694906.25,-27,45,43,0,0,0,0,0
1576868694937.5,-30,47,43,0,0,0,0,0
1576868694968.75,-35,46,34,0,0,0,0,0
1576868695000,-34,44,31,0,0,0,0,0
1576868695031.25,-31,42,36,0,0,0,0,0
1576868695062.5,-34,42,37,0,0,0,0,0
1576868695093.75,-33,43,39,0,0,0,0,0
1576868695125,-37,42,35,0,0,0,0,0
1576868695156.25,-55,36,24,0,0,0,0,0
1576868695187.5,-42,30,32,0,0,0,0,0
1576868695218.75,-35,29,39,0,0,0,0,0
1576868695250,-32,28,46,0,0,0,0,0
1576868695281.25,-33,28,42,0,0,0,0,0
1576868695312.5,-12,35,48,0,0,0,0,0
1576868695343.75,-16,36,56,0,0,0,0,0
1576868695375,-31,46,60,0,0,0,0,0
1576868695406.25,-32,46,59,0,0,0,0,0
1576868695437.5,-42,48,48,0,0,0,0,0
1576868695468.75,-44,46,44,0,0,0,0,0
1576868695500,-37,39,34,0,0,0,0,0
1576868695531.25,-32,35,26,0,0,0,0,0
1576868695562.5,-50,28,13,0,0,0,0,0
1576868695593.75,-40,27,23,0,0,0,0,0
1576868695625,-21,24,33,0,0,0,0,0
1576868695656.25,-15,30,45,0,0,0,0,0
1576868695687.5,-19,36,50,0,0,0,0,0
1576868695718.75,-42,43,41,0,0,0,0,0
1576868695750,-49,42,38,0,0,0,0,0
1576868695781.25,-44,38,41,0,0,0,0,0
1576868695812.5,-40,35,40,0,0,0,0,0
1576868695843.75,-36,25,33,0,0,0,0,0
1576868695875,-32,24,32,0,0,0,0,0
1576868695906.25,-38,31,43,0,0,0,0,0
1576868695937.5,-39,36,46,0,0,0,0,0
1576868695968.75,-34,35,47,0,0,0,0,0
1576868696000,-26,31,37,0,0,0,0,0
1576868696031.25,-22,31,39,0,0,0,0,0
1576868696062.5,-29,48,28,0,0,0,0,0
1576868696093.75,10,44,65,0,0,0,0,0
1576868696125,-15,49,63,0,0,0,0,0
1576868696156.25,-32,38,46,0,0,0,0,0
1576868696187.5,-20,35,46,0,0,0,0,0
1576868696218.75,-17,35,51,0,0,0,0,0
1576868696250,-15,36,48,0,0,0,0,0
1576868696281.25,-12,37,44,0,0,0,0,0
1576868696312.5,-19,41,42,0,0,0,0,0
1576868696343.75,-25,45,47,0,0,0,0,0
1576868696375,-20,44,48,0,0,0,0,0
1576868696406.25,-17,46,48,0,0,0,0,0
1576868696437.5,-20,53,51,0,0,0,0,0
1576868696468.75,-12,49,56,0,0,0,0,0
1576868696500,-12,46,53,0,0,0,0,0
1576868696531.25,-16,39,54,0,0,0,0,0
1576868696562.5,-17,36,54,0,0,0,0,0
1576868696593.75,-17,32,55,0,0,0,0,0
1576868696625,-25,30,49,0,0,0,0,0
1576868696656.25,-35,26,45,0,0,0,0,0
1576868696687.5,-29,25,46,0,0,0,0,0
1576868696718.75,-2,24,35,0,0,0,0,0
1576868696750,1,34,33,0,0,0,0,0
1576868696781.25,-43,47,31,0,0,0,0,0
1576868696812.5,-41,48,39,0,0,0,0,0
1576868696843.75,-28,50,36,0,0,0,0,0
1576868696875,-6,30,49,0,0,0,0,0
1576868696906.25,-10,29,48,0,0,0,0,0
1576868696937.5,9,40,65,0,0,0,0,0
1576868696968.75,-1,42,64,0,0,0,0,0
1576868697000,13,42,77,0,0,0,0,0
1576868697031.25,13,40,80,0,0,0,0,0
1576868697062.5,6,38,47,0,0,0,0,0
1576868697093.75,0,36,38,0,0,0,0,0
1576868697125,-6,33,30,0,0,0,0,0
1576868697156.25,1,30,48,0,0,0,0,0
1576868697187.5,-14,30,44,0,0,0,0,0
1576868697218.75,-4,32,55,0,0,0,0,0
1576868697250,8,34,64,0,0,0,0,0
1576868697281.25,18,34,60,0,0,0,0,0
1576868697312.5,18,35,63,0,0,0,0,0
1576868697343.75,2,36,51,0,0,0,0,0
1576868697375,9,37,49,0,0,0,0,0
1576868697406.25,7,36,42,0,0,0,0,0
1576868697437.5,11,41,48,0,0,0,0,0
1576868697468.75,35,38,53,0,0,0,0,0
1576868697500,31,34,51,0,0,0,0,0
1576868697531.25,-3,41,46,0,0,0,0,0
1576868697562.5,11,41,48,0,0,0,0,0
1576868697593.75,26,36,45,0,0,0,0,0
1576868697625,26,42,45,0,0,0,0,0
1576868697656.25,23,39,55,0,0,0,0,0
1576868697687.5,21,44,61,0,0,0,0,0
1576868697718.75,24,43,60,0,0,0,0,0
1576868697750,24,34,41,0,0,0,0,0
1576868697781.25,25,33,37,0,0,0,0,0
1576868697812.5,28,30,41,0,0,0,0,0
1576868697843.75,13,31,39,0,0,0,0,0
1576868697875,2,34,47,0,0,0,0,0
1576868697906.25,8,32,47,0,0,0,0,0
1576868697937.5,25,32,44,0,0,0,0,0
1576868697968.75,23,36,38,0,0,0,0,0
1576868698000,31,40,43,0,0,0,0,0
1576868698031.25,44,46,53,0,0,0,0,0
1576868698062.5,41,49,52,0,0,0,0,0
1576868698093.75,33,45,45,0,0,0,0,0
1576868698125,32,46,47,0,0,0,0,0
1576868698156.25,24,49,49,0,0,0,0,0
1576868698187.5,28,48,55,0,0,0,0,0
1576868698218.75,26,48,65,0,0,0,0,0
1576868698250,13,46,56,0,0,0,0,0
1576868698281.25,24,38,58,0,0,0,0,0
1576868698312.5,24,36,58,0,0,0,0,0
1576868698343.75,5,33,55,0,0,0,0,0
1576868698375,4,29,52,0,0,0,0,0
1576868698406.25,10,25,52,0,0,0,0,0
1576868698437.5,3,25,55,0,0,0,0,0
1576868698468.75,-1,25,56,0,0,0,0,0
1576868698500,-16,22,49,0,0,0,0,0
1576868698531.25,-22,19,48,0,0,0,0,0
1576868698562.5,-25,16,45,0,0,0,0,0
1576868698593.75,-26,14,46,0,0,0,0,0
1576868698625,-31,11,46,0,0,0,0,0
1576868698656.25,-37,10,46,0,0,0,0,0
1576868698687.5,-42,8,38,0,0,0,0,0
1576868698718.75,-41,8,36,0,0,0,0,0
1576868698750,-43,9,38,0,0,0,0,0
1576868698781.25,-48,9,35,0,0,0,0,0
1576868698812.5,-56,9,31,0,0,0,0,0
1576868698843.75,-55,11,29,0,0,0,0,0
1576868698875,-56,10,30,0,0,0,0,0
1576868698906.25,-57,12,31,0,0,0,0,0
1576868698937.5,-61,11,25,0,0,0,0,0
1576868698968.75,-65,8,18,0,0,0,0,0
1576868699000,-63,7,20,0,0,0,0,0
1576868699031.25,-62,6,23,0,0,0,0,0
1576868699062.5,-59,6,24,0,0,0,0,0
1576868699093.75,-65,6,24,0,0,0,0,0
1576868699125,-60,6,29,0,0,0,0,0
1576868699156.25,-57,6,33,0,0,0,0,0
1576868699187.5,-64,5,33,0,0,0,0,0
1576868699218.75,-39,3,41,0,0,0,0,0
1576868699250,-40,3,46,0,0,0,0,0
1576868699281.25,-42,4,49,0,0,0,0,0
1576868699312.5,-48,4,43,0,0,0,0,0
1576868699343.75,-42,4,46,0,0,0,0,0
1576868699375,-36,4,55,0,0,0,0,0
1576868699406.25,-39,4,52,0,0,0,0,0
1576868699437.5,-31,1,54,0,0,0,0,0
1576868699468.75,-27,0,56,0,0,0,0,0
1576868699500,-30,-3,56,0,0,0,0,0
1576868699531.25,-22,-6,58,0,0,0,0,0
1576868699562.5,-1,-8,64,0,0,0,0,0
1576868699593.75,-8,-7,62,0,0,0,0,0
1576868699625,-17,-8,60,0,0,0,0,0
1576868699656.25,-12,-10,64,0,0,0,0,0
1576868699687.5,-11,-10,63,0,0,0,0,0
1576868699718.75,-13,-11,61,0,0,0,0,0
1576868699750,-14,-12,61,0,0,0,0,0
1576868699781.25,-18,-13,58,0,0,0,0,0
1576868699812.5,-21,-13,57,0,0,0,0,0
1576868699843.75,-20,-14,55,0,0,0,0,0
1576868699875,-23,-14,56,0,0,0,0,0
1576868699906.25,-25,-14,55,0,0,0,0,0
1576868699937.5,-26,-15,54,0,0,0,0,0
1576868699968.75,-25,-18,54,0,0,0,0,0
1576868700000,-26,-17,49,0,0,0,0,0
1576868700031.25,-27,-19,49,0,0,0,0,0
1576868700062.5,-33,-19,46,0,0,0,0,0
1576868700093.75,-35,-21,47,0,0,0,0,0
1576868700125,-37,-23,49,0,0,0,0,0
1576868700156.25,-39,-23,48,0,0,0,0,0
1576868700187.5,-38,-23,47,0,0,0,0,0
1576868700218.75,-37,-23,49,0,0,0,0,0
1576868700250,-39,-23,50,0,0,0,0,0
1576868700281.25,-39,-23,49,0,0,0,0,0
1576868700312.5,-34,-23,49,0,0,0,0,0
1576868700343.75,-34,-22,47,0,0,0,0,0
1576868700375,-34,-22,47,0,0,0,0,0
1576868700406.25,-34,-23,47,0,0,0,0,0
1576868700437.5,-33,-24,49,0,0,0,0,0
1576868700468.75,-32,-25,49,0,0,0,0,0
1576868700500,-31,-26,50,0,0,0,0,0
1576868700531.25,-30,-27,52,0,0,0,0,0
1576868700562.5,-30,-26,53,0,0,0,0,0
1576868700593.75,-34,-26,50,0,0,0,0,0
1576868700625,-33,-26,48,0,0,0,0,0
1576868700656.25,-25,-27,47,0,0,0,0,0
1576868700687.5,-24,-27,47,0,0,0,0,0
1576868700718.75,-29,-27,51,0,0,0,0,0
1576868700750,-31,-27,48,0,0,0,0,0
1576868700781.25,-24,-27,48,0,0,0,0,0
1576868700812.5,-18,-28,50,0,0,0,0,0
1576868700843.75,-21,-26,51,0,0,0,0,0
1576868700875,-26,-27,52,0,0,0,0,0
1576868700906.25,-27,-27,52,0,0,0,0,0
1576868700937.5,-24,-28,50,0,0,0,0,0
1576868700968.75,-24,-27,50,0,0,0,0,0
1576868701000,-23,-25,51,0,0,0,0,0
1576868701031.25,-24,-26,52,0,0,0,0,0
1576868701062.5,-22,-29,54,0,0,0,0,0
1576868701093.75,-20,-28,56,0,0,0,0,0
1576868701125,-23,-21,61,0,0,0,0,0
1576868701156.25,-21,-20,60,0,0,0,0,0
1576868701187.5,-13,-22,58,0,0,0,0,0
1576868701218.75,-10,-22,56,0,0,0,0,0
1576868701250,-11,-22,56,0,0,0,0,0
1576868701281.25,-11,-20,55,0,0,0,0,0
1576868701312.5,-9,-19,55,0,0,0,0,0
1576868701343.75,-6,-16,58,0,0,0,0,0
1576868701375,-7,-15,59,0,0,0,0,0
1576868701406.25,-10,-15,60,0,0,0,0,0
1576868701437.5,-10,-15,61,0,0,0,0,0
1576868701468.75,-7,-16,63,0,0,0,0,0
1576868701500,-3,-15,63,0,0,0,0,0
1576868701531.25,-4,-15,62,0,0,0,0,0
1576868701562.5,-5,-13,62,0,0,0,0,0
1576868701593.75,-2,-12,66,0,0,0,0,0
1576868701625,-2,-12,64,0,0,0,0,0
1576868701656.25,-2,-12,62,0,0,0,0,0
1576868701687.5,-1,-12,62,0,0,0,0,0
1576868701718.75,-1,-12,62,0,0,0,0,0
1576868701750,-1,-12,62,0,0,0,0,0
1576868701781.25,-2,-12,63,0,0,0,0,0
1576868701812.5,-2,-9,64,0,0,0,0,0
1576868701843.75,-2,-9,65,0,0,0,0,0
1576868701875,1,-9,66,0,0,0,0,0
1576868701906.25,-1,-9,64,0,0,0,0,0
1576868701937.5,-1,-9,64,0,0,0,0,0
1576868701968.75,0,-10,64,0,0,0,0,0
1576868702000,2,-10,63,0,0,0,0,0
1576868702031.25,4,-9,63,0,0,0,0,0
1576868702062.5,3,-7,62,0,0,0,0,0
1576868702093.75,3,-6,62,0,0,0,0,0
1576868702125,4,-5,64,0,0,0,0,0
1576868702156.25,5,-6,65,0,0,0,0,0
1576868702187.5,4,-6,64,0,0,0,0,0
1576868702218.75,4,-6,64,0,0,0,0,0
1576868702250,4,-7,63,0,0,0,0,0
1576868702281.25,5,-6,63,0,0,0,0,0
1576868702312.5,5,-6,64,0,0,0,0,0
1576868702343.75,9,-5,66,0,0,0,0,0
1576868702375,10,-6,66,0,0,0,0,0
1576868702406.25,2,-5,61,0,0,0,0,0
1576868702437.5,3,-6,62,0,0,0,0,0
1576868702468.75,6,-5,64,0,0,0,0,0
1576868702500,-6,-3,59,0,0,0,0,0
1576868702531.25,-16,-3,56,0,0,0,0,0
1576868702562.5,-26,-2,51,0,0,0,0,0
1576868702593.75,-20,-3,51,0,0,0,0,0
1576868702625,-24,-5,49,0,0,0,0,0
1576868702656.25,-46,-6,45,0,0,0,0,0
1576868702687.5,-62,-7,42,0,0,0,0,0
1576868702718.75,-56,-8,41,0,0,0,0,0
1576868702750,-48,-9,39,0,0,0,0,0
1576868702781.25,-61,-5,34,0,0,0,0,0
1576868702812.5,-66,-4,31,0,0,0,0,0
1576868702843.75,-59,-6,32,0,0,0,0,0
1576868702875,-56,-7,31,0,0,0,0,0
1576868702906.25,-54,-5,29,0,0,0,0,0
1576868702937.5,-54,-5,29,0,0,0,0,0
1576868702968.75,-54,-4,32,0,0,0,0,0
1576868703000,-55,-5,31,0,0,0,0,0
1576868703031.25,-56,-4,32,0,0,0,0,0
1576868703062.5,-54,-4,33,0,0,0,0,0
1576868703093.75,-54,-4,34,0,0,0,0,0
1576868703125,-56,-3,33,0,0,0,0,0
1576868703156.25,-54,-3,32,0,0,0,0,0
1576868703187.5,-54,-3,30,0,0,0,0,0
1576868703218.75,-53,-3,30,0,0,0,0,0
1576868703250,-54,-3,29,0,0,0,0,0
1576868703281.25,-55,-2,28,0,0,0,0,0
1576868703312.5,-56,-4,27,0,0,0,0,0
1576868703343.75,-54,-5,28,0,0,0,0,0
1576868703375,-58,-3,26,0,0,0,0,0
1576868703406.25,-60,-3,27,0,0,0,0,0
1576868703437.5,-61,-2,27,0,0,0,0,0
1576868703468.75,-61,-2,27,0,0,0,0,0
1576868703500,-60,-2,26,0,0,0,0,0
1576868703531.25,-60,-3,27,0,0,0,0,0
1576868703562.5,-61,-2,27,0,0,0,0,0
1576868703593.75,-60,-2,27,0,0,0,0,0
1576868703625,-61,-3,26,0,0,0,0,0
1576868703656.25,-59,-3,25,0,0,0,0,0
1576868703687.5,-58,-3,25,0,0,0,0,0
1576868703718.75,-59,-3,25,0,0,0,0,0
1576868703750,-59,-3,25,0,0,0,0,0
1576868703781.25,-59,-3,25,0,0,0,0,0
1576868703812.5,-57,-2,26,0,0,0,0,0
1576868703843.75,-53,-2,28,0,0,0,0,0
1576868703875,-54,-1,26,0,0,0,0,0
1576868703906.25,-48,-1,23,0,0,0,0,0
1576868703937.5,-36,0,23,0,0,0,0,0
1576868703968.75,5,2,29,0,0,0,0,0
1576868704000,23,8,47,0,0,0,0,0
1576868704031.25,20,11,55,0,0,0,0,0
1576868704062.5,-5,19,67,0,0,0,0,0
1576868704093.75,-13,22,68,0,0,0,0,0
1576868704125,-7,27,68,0,0,0,0,0
1576868704156.25,7,26,71,0,0,0,0,0
1576868704187.5,24,26,75,0,0,0,0,0
1576868704218.75,24,26,73,0,0,0,0,0
1576868704250,6,30,68,0,0,0,0,0
1576868704281.25,-1,32,67,0,0,0,0,0
1576868704312.5,-1,34,64,0,0,0,0,0
1576868704343.75,3,35,64,0,0,0,0,0
1576868704375,5,35,66,0,0,0,0,0
1576868704406.25,-3,34,62,0,0,0,0,0
1576868704437.5,-3,33,62,0,0,0,0,0
1576868704468.75,5,31,62,0,0,0,0,0
1576868704500,5,30,61,0,0,0,0,0
1576868704531.25,2,30,58,0,0,0,0,0
1576868704562.5,0,31,58,0,0,0,0,0
1576868704593.75,-1,33,58,0,0,0,0,0
1576868704625,-2,33,59,0,0,0,0,0
1576868704656.25,0,36,63,0,0,0,0,0
1576868704687.5,2,36,66,0,0,0,0,0
1576868704718.75,3,34,66,0,0,0,0,0
1576868704750,8,30,63,0,0,0,0,0
1576868704781.25,11,28,63,0,0,0,0,0
1576868704812.5,10,24,63,0,0,0,0,0
1576868704843.75,10,24,62,0,0,0,0,0
1576868704875,15,17,50,0,0,0,0,0
1576868704906.25,20,14,45,0,0,0,0,0
1576868704937.5,14,12,40,0,0,0,0,0
1576868704968.75,9,10,42,0,0,0,0,0
1576868705000,12,9,51,0,0,0,0,0
