Timestamp,ACC_X,ACC_Y,ACC_Z,Note,AGG,ED,SIB,Condition
1565457115000,54,16,-23,0,0,0,0,0
1565457115031.25,54,16,-25,0,0,0,0,0
1565457115062.5,54,16,-25,0,0,0,0,0
1565457115093.75,53,16,-25,0,0,0,0,0
1565457115125,54,16,-25,0,0,0,0,0
1565457115156.25,53,16,-25,0,0,0,0,0
1565457115187.5,53,16,-26,0,0,0,0,0
1565457115218.75,53,16,-25,0,0,0,0,0
1565457115250,54,16,-25,0,0,0,0,0
1565457115281.25,53,16,-25,0,0,0,0,0
1565457115312.5,53,16,-25,0,0,0,0,0
1565457115343.75,53,16,-25,0,0,0,0,0
1565457115375,54,16,-25,0,0,0,0,0
1565457115406.25,53,16,-26,0,0,0,0,0
1565457115437.5,53,16,-25,0,0,0,0,0
1565457115468.75,53,16,-25,0,0,0,0,0
1565457115500,54,16,-25,0,0,0,0,0
1565457115531.25,54,16,-25,0,0,0,0,0
1565457115562.5,53,16,-25,0,0,0,0,0
1565457115593.75,53,16,-25,0,0,0,0,0
1565457115625,54,16,-25,0,0,0,0,0
1565457115656.25,54,16,-25,0,0,0,0,0
1565457115687.5,54,16,-25,0,0,0,0,0
1565457115718.75,54,16,-25,0,0,0,0,0
1565457115750,54,16,-25,0,0,0,0,0
1565457115781.25,54,16,-25,0,0,0,0,0
1565457115812.5,54,16,-25,0,0,0,0,0
1565457115843.75,54,16,-25,0,0,0,0,0
1565457115875,54,16,-25,0,0,0,0,0
1565457115906.25,54,16,-25,0,0,0,0,0
1565457115937.5,54,16,-24,0,0,0,0,0
1565457115968.75,54,16,-25,0,0,0,0,0
1565457116000,54,16,-24,0,0,0,0,0
1565457116031.25,54,16,-25,0,0,0,0,0
1565457116062.5,54,16,-24,0,0,0,0,0
1565457116093.75,53,16,-25,0,0,0,0,0
1565457116125,54,16,-25,0,0,0,0,0
1565457116156.25,54,16,-25,0,0,0,0,0
1565457116187.5,53,16,-25,0,0,0,0,0
1565457116218.75,54,16,-25,0,0,0,0,0
1565457116250,54,16,-25,0,0,0,0,0
1565457116281.25,54,16,-25,0,0,0,0,0
1565457116312.5,54,16,-24,0,0,0,0,0
1565457116343.75,54,16,-25,0,0,0,0,0
1565457116375,54,16,-25,0,0,0,0,0
1565457116406.25,54,16,-24,0,0,0,0,0
1565457116437.5,54,16,-24,0,0,0,0,0
1565457116468.75,54,16,-24,0,0,0,0,0
1565457116500,54,16,-24,0,0,0,0,0
1565457116531.25,54,16,-23,0,0,0,0,0
1565457116562.5,54,16,-23,0,0,0,0,0
1565457116593.75,54,16,-24,0,0,0,0,0
1565457116625,54,15,-24,0,0,0,0,0
1565457116656.25,54,16,-24,0,0,0,0,0
1565457116687.5,54,16,-24,0,0,0,0,0
1565457116718.75,54,16,-24,0,0,0,0,0
1565457116750,54,16,-24,0,0,0,0,0
1565457116781.25,54,16,-24,0,0,0,0,0
1565457116812.5,54,16,-24,0,0,0,0,0
1565457116843.75,54,16,-24,0,0,0,0,0
1565457116875,54,16,-24,0,0,0,0,0
1565457116906.25,54,16,-24,0,0,0,0,0
1565457116937.5,54,16,-24,0,0,0,0,0
1565457116968.75,54,16,-24,0,0,0,0,0
1565457117000,54,16,-25,0,0,0,0,0
1565457117031.25,54,16,-24,0,0,0,0,0
1565457117062.5,54,15,-24,0,0,0,0,0
1565457117093.75,54,15,-24,0,0,0,0,0
1565457117125,54,16,-24,0,0,0,0,0
1565457117156.25,54,16,-25,0,0,0,0,0
1565457117187.5,54,16,-24,0,0,0,0,0
1565457117218.75,54,16,-25,0,0,0,0,0
1565457117250,53,16,-24,0,0,0,0,0
1565457117281.25,54,15,-24,0,0,0,0,0
1565457117312.5,54,16,-25,0,0,0,0,0
1565457117343.75,53,16,-25,0,0,0,0,0
1565457117375,53,15,-25,0,0,0,0,0
1565457117406.25,53,16,-25,0,0,0,0,0
1565457117437.5,53,16,-25,0,0,0,0,0
1565457117468.75,53,16,-25,0,0,0,0,0
1565457117500,53,16,-25,0,0,0,0,0
1565457117531.25,53,16,-25,0,0,0,0,0
1565457117562.5,53,16,-25,0,0,0,0,0
1565457117593.75,53,16,-26,0,0,0,0,0
1565457117625,53,16,-26,0,0,0,0,0
1565457117656.25,53,16,-26,0,0,0,0,0
1565457117687.5,53,16,-25,0,0,0,0,0
1565457117718.75,53,16,-26,0,0,0,0,0
1565457117750,53,16,-26,0,0,0,0,0
1565457117781.25,53,16,-26,0,0,0,0,0
1565457117812.5,53,16,-26,0,0,0,0,0
1565457117843.75,53,16,-26,0,0,0,0,0
1565457117875,53,16,-26,0,0,0,0,0
1565457117906.25,53,16,-26,0,0,0,0,0
1565457117937.5,53,16,-26,0,0,0,0,0
1565457117968.75,53,16,-26,0,0,0,0,0
1565457118000,54,16,-25,0,0,0,0,0
1565457118031.25,53,16,-25,0,0,0,0,0
1565457118062.5,53,16,-26,0,0,0,0,0
1565457118093.75,53,16,-26,0,0,0,0,0
1565457118125,53,16,-25,0,0,0,0,0
1565457118156.25,53,16,-25,0,0,0,0,0
1565457118187.5,53,16,-26,0,0,0,0,0
1565457118218.75,54,16,-26,0,0,0,0,0
1565457118250,53,16,-25,0,0,0,0,0
1565457118281.25,53,16,-25,0,0,0,0,0
1565457118312.5,53,16,-26,0,0,0,0,0
1565457118343.75,53,16,-26,0,0,0,0,0
1565457118375,53,16,-26,0,0,0,0,0
1565457118406.25,53,16,-26,0,0,0,0,0
1565457118437.5,53,16,-26,0,0,0,0,0
1565457118468.75,53,16,-27,0,0,0,0,0
1565457118500,53,16,-27,0,0,0,0,0
1565457118531.25,52,16,-28,0,0,0,0,0
1565457118562.5,52,16,-28,0,0,0,0,0
1565457118593.75,51,16,-29,0,0,0,0,0
1565457118625,51,16,-30,0,0,0,0,0
1565457118656.25,51,16,-30,0,0,0,0,0
1565457118687.5,50,16,-31,0,0,0,0,0
1565457118718.75,51,16,-30,0,0,0,0,0
1565457118750,51,16,-30,0,0,0,0,0
1565457118781.25,51,16,-30,0,0,0,0,0
1565457118812.5,51,16,-30,0,0,0,0,0
1565457118843.75,51,16,-29,0,0,0,0,0
1565457118875,51,16,-29,0,0,0,0,0
1565457118906.25,52,16,-29,0,0,0,0,0
1565457118937.5,51,16,-30,0,0,0,0,0
1565457118968.75,51,16,-29,0,0,0,0,0
1565457119000,51,16,-28,0,0,0,0,0
1565457119031.25,52,16,-29,0,0,0,0,0
1565457119062.5,52,16,-29,0,0,0,0,0
1565457119093.75,52,16,-29,0,0,0,0,0
1565457119125,52,16,-28,0,0,0,0,0
1565457119156.25,52,16,-28,0,0,0,0,0
1565457119187.5,52,16,-28,0,0,0,0,0
1565457119218.75,53,16,-28,0,0,0,0,0
1565457119250,52,16,-28,0,0,0,0,0
1565457119281.25,52,16,-27,0,0,0,0,0
1565457119312.5,52,16,-27,0,0,0,0,0
1565457119343.75,52,16,-27,0,0,0,0,0
1565457119375,52,16,-27,0,0,0,0,0
1565457119406.25,53,16,-27,0,0,0,0,0
1565457119437.5,53,16,-27,0,0,0,0,0
1565457119468.75,53,16,-27,0,0,0,0,0
1565457119500,53,16,-27,0,0,0,0,0
1565457119531.25,53,16,-27,0,0,0,0,0
1565457119562.5,53,16,-27,0,0,0,0,0
1565457119593.75,53,16,-26,0,0,0,0,0
1565457119625,53,16,-26,0,0,0,0,0
1565457119656.25,53,16,-25,0,0,0,0,0
1565457119687.5,54,16,-26,0,0,0,0,0
1565457119718.75,53,16,-26,0,0,0,0,0
1565457119750,53,16,-25,0,0,0,0,0
1565457119781.25,53,16,-25,0,0,0,0,0
1565457119812.5,53,16,-26,0,0,0,0,0
1565457119843.75,53,16,-26,0,0,0,0,0
1565457119875,53,17,-26,0,0,0,0,0
1565457119906.25,53,16,-26,0,0,0,0,0
1565457119937.5,53,16,-26,0,0,0,0,0
1565457119968.75,53,16,-26,0,0,0,0,0
1565457120000,53,16,-26,0,0,0,0,0
1565457120031.25,53,16,-26,0,0,0,0,0
1565457120062.5,53,16,-26,0,0,0,0,0
1565457120093.75,53,16,-26,0,0,0,0,0
1565457120125,53,16,-26,0,0,0,0,0
1565457120156.25,53,16,-25,0,0,0,0,0
1565457120187.5,53,16,-25,0,0,0,0,0
1565457120218.75,53,16,-25,0,0,0,0,0
1565457120250,53,17,-25,0,0,0,0,0
1565457120281.25,53,16,-26,0,0,0,0,0
1565457120312.5,53,16,-26,0,0,0,0,0
1565457120343.75,53,17,-26,0,0,0,0,0
1565457120375,53,16,-26,0,0,0,0,0
1565457120406.25,53,17,-26,0,0,0,0,0
1565457120437.5,53,17,-26,0,0,0,0,0
1565457120468.75,53,16,-26,0,0,0,0,0
1565457120500,53,17,-26,0,0,0,0,0
1565457120531.25,53,16,-26,0,0,0,0,0
1565457120562.5,53,17,-26,0,0,0,0,0
1565457120593.75,53,17,-26,0,0,0,0,0
1565457120625,53,16,-26,0,0,0,0,0
1565457120656.25,53,16,-26,0,0,0,0,0
1565457120687.5,53,17,-26,0,0,0,0,0
1565457120718.75,53,17,-26,0,0,0,0,0
1565457120750,53,17,-26,0,0,0,0,0
1565457120781.25,53,17,-26,0,0,0,0,0
1565457120812.5,53,16,-26,0,0,0,0,0
1565457120843.75,53,17,-26,0,0,0,0,0
1565457120875,52,17,-26,0,0,0,0,0
1565457120906.25,53,16,-26,0,0,0,0,0
1565457120937.5,53,16,-26,0,0,0,0,0
1565457120968.75,53,16,-26,0,0,0,0,0
1565457121000,53,17,-26,0,0,0,0,0
1565457121031.25,53,16,-26,0,0,0,0,0
1565457121062.5,53,17,-26,0,0,0,0,0
1565457121093.75,53,16,-26,0,0,0,0,0
1565457121125,53,16,-26,0,0,0,0,0
1565457121156.25,53,17,-26,0,0,0,0,0
1565457121187.5,53,17,-26,0,0,0,0,0
1565457121218.75,53,17,-26,0,0,0,0,0
1565457121250,53,16,-26,0,0,0,0,0
1565457121281.25,53,16,-26,0,0,0,0,0
1565457121312.5,53,16,-26,0,0,0,0,0
1565457121343.75,53,17,-26,0,0,0,0,0
1565457121375,53,17,-27,0,0,0,0,0
1565457121406.25,53,16,-27,0,0,0,0,0
1565457121437.5,53,17,-26,0,0,0,0,0
1565457121468.75,53,17,-26,0,0,0,0,0
1565457121500,53,17,-27,0,0,0,0,0
1565457121531.25,52,16,-26,0,0,0,0,0
1565457121562.5,53,16,-27,0,0,0,0,0
1565457121593.75,53,16,-26,0,0,0,0,0
1565457121625,53,17,-26,0,0,0,0,0
1565457121656.25,53,17,-26,0,0,0,0,0
1565457121687.5,53,16,-26,0,0,0,0,0
1565457121718.75,53,17,-27,0,0,0,0,0
1565457121750,53,16,-26,0,0,0,0,0
1565457121781.25,53,17,-27,0,0,0,0,0
1565457121812.5,53,17,-26,0,0,0,0,0
1565457121843.75,53,17,-27,0,0,0,0,0
1565457121875,53,17,-27,0,0,0,0,0
1565457121906.25,52,16,-26,0,0,0,0,0
1565457121937.5,53,17,-27,0,0,0,0,0
1565457121968.75,53,16,-26,0,0,0,0,0
1565457122000,53,16,-27,0,0,0,0,0
1565457122031.25,53,16,-26,0,0,0,0,0
1565457122062.5,53,16,-27,0,0,0,0,0
1565457122093.75,53,16,-27,0,0,0,0,0
1565457122125,53,16,-27,0,0,0,0,0
1565457122156.25,53,17,-26,0,0,0,0,0
1565457122187.5,52,16,-27,0,0,0,0,0
1565457122218.75,52,17,-27,0,0,0,0,0
1565457122250,53,16,-27,0,0,0,0,0
1565457122281.25,52,17,-26,0,0,0,0,0
1565457122312.5,53,16,-27,0,0,0,0,0
1565457122343.75,53,16,-27,0,0,0,0,0
1565457122375,52,16,-27,0,0,0,0,0
1565457122406.25,52,17,-27,0,0,0,0,0
1565457122437.5,52,17,-27,0,0,0,0,0
1565457122468.75,53,17,-27,0,0,0,0,0
1565457122500,52,16,-27,0,0,0,0,0
1565457122531.25,52,16,-27,0,0,0,0,0
1565457122562.5,52,17,-27,0,0,0,0,0
1565457122593.75,52,16,-27,0,0,0,0,0
1565457122625,53,17,-27,0,0,0,0,0
1565457122656.25,52,16,-27,0,0,0,0,0
1565457122687.5,52,16,-27,0,0,0,0,0
1565457122718.75,52,17,-27,0,0,0,0,0
1565457122750,52,16,-27,0,0,0,0,0
1565457122781.25,53,17,-27,0,0,0,0,0
1565457122812.5,53,17,-27,0,0,0,0,0
1565457122843.75,52,17,-27,0,0,0,0,0
1565457122875,52,16,-27,0,0,0,0,0
1565457122906.25,53,16,-27,0,0,0,0,0
1565457122937.5,52,17,-27,0,0,0,0,0
1565457122968.75,52,16,-27,0,0,0,0,0
1565457123000,52,16,-27,0,0,0,0,0
1565457123031.25,52,17,-27,0,0,0,0,0
1565457123062.5,52,17,-27,0,0,0,0,0
1565457123093.75,52,16,-27,0,0,0,0,0
1565457123125,52,16,-27,0,0,0,0,0
1565457123156.25,52,16,-27,0,0,0,0,0
1565457123187.5,52,16,-27,0,0,0,0,0
1565457123218.75,52,16,-27,0,0,0,0,0
1565457123250,52,17,-28,0,0,0,0,0
1565457123281.25,52,16,-27,0,0,0,0,0
1565457123312.5,53,18,-28,0,0,0,0,0
1565457123343.75,53,17,-26,0,0,0,0,0
1565457123375,53,16,-24,0,0,0,0,0
1565457123406.25,54,18,-28,0,0,0,0,0
1565457123437.5,52,31,-32,0,0,0,0,0
1565457123468.75,43,68,-43,0,0,0,0,0
1565457123500,53,84,-49,0,0,0,0,0
1565457123531.25,100,67,-25,0,0,0,0,0
1565457123562.5,89,60,-35,0,0,0,0,0
1565457123593.75,67,53,-53,0,0,0,0,0
1565457123625,62,40,-49,0,0,0,0,0
1565457123656.25,53,27,-38,0,0,0,0,0
1565457123687.5,42,22,-41,0,0,0,0,0
1565457123718.75,37,20,-35,0,0,0,0,0
1565457123750,37,24,-35,0,0,0,0,0
1565457123781.25,34,26,-52,0,0,0,0,0
1565457123812.5,31,28,-72,0,0,0,0,0
1565457123843.75,45,31,-96,0,0,0,0,0
1565457123875,34,34,-76,0,0,0,0,0
1565457123906.25,3,14,-23,0,0,0,0,0
1565457123937.5,20,-103,127,0,0,0,0,0
1565457123968.75,31,5,99,0,0,0,0,0
1565457124000,73,67,-21,0,0,0,0,0
1565457124031.25,30,45,4,0,0,0,0,0
1565457124062.5,34,42,23,0,0,0,0,0
1565457124093.75,26,43,12,0,0,0,0,0
1565457124125,21,39,6,0,0,0,0,0
1565457124156.25,25,35,9,0,0,0,0,0
1565457124187.5,25,41,2,0,0,0,0,0
1565457124218.75,25,49,-4,0,0,0,0,0
1565457124250,22,57,-13,0,0,0,0,0
1565457124281.25,24,70,-17,0,0,0,0,0
1565457124312.5,35,96,-3,0,0,0,0,0
1565457124343.75,34,95,-7,0,0,0,0,0
1565457124375,29,92,-3,0,0,0,0,0
1565457124406.25,22,77,10,0,0,0,0,0
1565457124437.5,18,72,7,0,0,0,0,0
1565457124468.75,26,62,9,0,0,0,0,0
1565457124500,34,58,20,0,0,0,0,0
1565457124531.25,21,58,9,0,0,0,0,0
1565457124562.5,20,56,4,0,0,0,0,0
1565457124593.75,34,58,18,0,0,0,0,0
1565457124625,28,57,13,0,0,0,0,0
1565457124656.25,23,52,14,0,0,0,0,0
1565457124687.5,25,49,21,0,0,0,0,0
1565457124718.75,22,49,15,0,0,0,0,0
1565457124750,20,52,16,0,0,0,0,0
1565457124781.25,19,54,25,0,0,0,0,0
1565457124812.5,12,65,7,0,0,0,0,0
1565457124843.75,15,65,7,0,0,0,0,0
1565457124875,25,60,14,0,0,0,0,0
1565457124906.25,23,59,11,0,0,0,0,0
1565457124937.5,21,66,14,0,0,0,0,0
1565457124968.75,24,60,20,0,0,0,0,0
1565457125000,24,52,21,0,0,0,0,0
1565457125031.25,21,48,18,0,0,0,0,0
1565457125062.5,25,46,24,0,0,0,0,0
1565457125093.75,24,50,23,0,0,0,0,0
1565457125125,19,59,24,0,0,0,0,0
1565457125156.25,19,59,29,0,0,0,0,0
1565457125187.5,14,58,26,0,0,0,0,0
1565457125218.75,7,57,21,0,0,0,0,0
1565457125250,10,60,23,0,0,0,0,0
1565457125281.25,9,73,25,0,0,0,0,0
1565457125312.5,4,79,19,0,0,0,0,0
1565457125343.75,1,78,13,0,0,0,0,0
1565457125375,1,76,12,0,0,0,0,0
1565457125406.25,13,75,16,0,0,0,0,0
1565457125437.5,7,86,7,0,0,0,0,0
1565457125468.75,20,82,26,0,0,0,0,0
1565457125500,32,64,49,0,0,0,0,0
1565457125531.25,11,52,26,0,0,0,0,0
1565457125562.5,26,37,16,0,0,0,0,0
1565457125593.75,33,22,-30,0,0,0,0,0
1565457125625,15,-11,-33,0,0,0,0,0
1565457125656.25,43,-34,7,0,0,0,0,0
1565457125687.5,65,14,-9,0,0,0,0,0
1565457125718.75,52,34,-24,0,0,0,0,0
1565457125750,127,40,115,0,0,0,0,0
1565457125781.25,101,19,76,0,0,0,0,0
1565457125812.5,59,43,-31,0,0,0,0,0
1565457125843.75,64,34,-24,0,0,0,0,0
1565457125875,56,28,-12,0,0,0,0,0
1565457125906.25,53,23,-14,0,0,0,0,0
1565457125937.5,33,20,-26,0,0,0,0,0
1565457125968.75,29,22,-26,0,0,0,0,0
1565457126000,20,30,-36,0,0,0,0,0
1565457126031.25,7,44,-51,0,0,0,0,0
1565457126062.5,3,68,-46,0,0,0,0,0
1565457126093.75,13,83,-30,0,0,0,0,0
1565457126125,27,89,-22,0,0,0,0,0
1565457126156.25,105,82,-52,0,0,0,0,0
1565457126187.5,127,37,-40,0,0,0,0,0
1565457126218.75,65,30,-40,0,0,0,0,0
1565457126250,31,15,-30,0,0,0,0,0
1565457126281.25,1,-16,-35,0,0,0,0,0
1565457126312.5,10,0,-40,0,0,0,0,0
1565457126343.75,113,39,-99,0,0,0,0,0
1565457126375,59,8,-38,0,0,0,0,0
1565457126406.25,49,13,-46,0,0,0,0,0
1565457126437.5,50,15,-43,0,0,0,0,0
1565457126468.75,48,12,-32,0,0,0,0,0
1565457126500,50,13,-31,0,0,0,0,0
1565457126531.25,49,14,-33,0,0,0,0,0
1565457126562.5,50,14,-36,0,0,0,0,0
1565457126593.75,51,13,-34,0,0,0,0,0
1565457126625,56,11,-24,0,0,0,0,0
1565457126656.25,46,16,-29,0,0,0,0,0
1565457126687.5,72,13,-23,0,0,0,0,0
1565457126718.75,63,14,-21,0,0,0,0,0
1565457126750,48,14,-21,0,0,0,0,0
1565457126781.25,51,16,-20,0,0,0,0,0
1565457126812.5,62,16,-17,0,0,0,0,0
1565457126843.75,59,18,-18,0,0,0,0,0
1565457126875,52,19,-20,0,0,0,0,0
1565457126906.25,65,17,-16,0,0,0,0,0
1565457126937.5,54,20,-13,0,0,0,0,0
1565457126968.75,52,19,-2,0,0,0,0,0
1565457127000,51,20,-1,0,0,0,0,0
1565457127031.25,47,22,-6,0,0,0,0,0
1565457127062.5,51,22,-7,0,0,0,0,0
1565457127093.75,59,22,-1,0,0,0,0,0
1565457127125,61,19,7,0,0,0,0,0
1565457127156.25,59,18,10,0,0,0,0,0
1565457127187.5,56,19,5,0,0,0,0,0
1565457127218.75,69,21,1,0,0,0,0,0
1565457127250,67,21,-1,0,0,0,0,0
1565457127281.25,53,24,-11,0,0,0,0,0
1565457127312.5,47,25,-10,0,0,0,0,0
1565457127343.75,49,24,-5,0,0,0,0,0
1565457127375,58,22,-1,0,0,0,0,0
1565457127406.25,57,23,-2,0,0,0,0,0
1565457127437.5,58,22,4,0,0,0,0,0
1565457127468.75,61,20,8,0,0,0,0,0
1565457127500,55,23,6,0,0,0,0,0
1565457127531.25,56,23,6,0,0,0,0,0
1565457127562.5,58,22,1,0,0,0,0,0
1565457127593.75,58,22,1,0,0,0,0,0
1565457127625,62,22,8,0,0,0,0,0
1565457127656.25,59,21,11,0,0,0,0,0
1565457127687.5,54,20,8,0,0,0,0,0
1565457127718.75,54,22,6,0,0,0,0,0
1565457127750,60,22,6,0,0,0,0,0
1565457127781.25,60,21,9,0,0,0,0,0
1565457127812.5,57,20,9,0,0,0,0,0
1565457127843.75,53,22,7,0,0,0,0,0
1565457127875,55,21,8,0,0,0,0,0
1565457127906.25,59,21,6,0,0,0,0,0
1565457127937.5,60,22,5,0,0,0,0,0
1565457127968.75,59,22,2,0,0,0,0,0
1565457128000,57,21,1,0,0,0,0,0
1565457128031.25,51,22,-2,0,0,0,0,0
1565457128062.5,55,21,-2,0,0,0,0,0
1565457128093.75,59,21,-9,0,0,0,0,0
1565457128125,61,23,-13,0,0,0,0,0
1565457128156.25,56,22,-16,0,0,0,0,0
1565457128187.5,53,22,-17,0,0,0,0,0
1565457128218.75,49,22,-28,0,0,0,0,0
1565457128250,53,24,-31,0,0,0,0,0
1565457128281.25,55,24,-31,0,0,0,0,0
1565457128312.5,47,21,-31,0,0,0,0,0
1565457128343.75,48,22,-30,0,0,0,0,0
1565457128375,48,22,-33,0,0,0,0,0
1565457128406.25,49,22,-33,0,0,0,0,0
1565457128437.5,50,21,-28,0,0,0,0,0
1565457128468.75,51,20,-28,0,0,0,0,0
1565457128500,47,22,-32,0,0,0,0,0
1565457128531.25,47,23,-35,0,0,0,0,0
1565457128562.5,54,22,-32,0,0,0,0,0
1565457128593.75,54,23,-31,0,0,0,0,0
1565457128625,45,22,-32,0,0,0,0,0
1565457128656.25,47,22,-29,0,0,0,0,0
1565457128687.5,58,23,-22,0,0,0,0,0
1565457128718.75,62,22,-19,0,0,0,0,0
1565457128750,63,22,-18,0,0,0,0,0
1565457128781.25,61,23,-14,0,0,0,0,0
1565457128812.5,64,26,-11,0,0,0,0,0
1565457128843.75,46,25,-10,0,0,0,0,0
1565457128875,23,27,-16,0,0,0,0,0
1565457128906.25,73,25,22,0,0,0,0,0
1565457128937.5,63,21,21,0,0,0,0,0
1565457128968.75,41,25,11,0,0,0,0,0
1565457129000,39,26,13,0,0,0,0,0
1565457129031.25,48,25,14,0,0,0,0,0
1565457129062.5,53,26,15,0,0,0,0,0
1565457129093.75,60,28,18,0,0,0,0,0
1565457129125,57,25,16,0,0,0,0,0
1565457129156.25,51,27,12,0,0,0,0,0
1565457129187.5,56,29,14,0,0,0,0,0
1565457129218.75,56,27,17,0,0,0,0,0
1565457129250,57,26,17,0,0,0,0,0
1565457129281.25,55,28,13,0,0,0,0,0
1565457129312.5,51,30,14,0,0,0,0,0
1565457129343.75,53,27,17,0,0,0,0,0
1565457129375,55,29,14,0,0,0,0,0
1565457129406.25,57,30,16,0,0,0,0,0
1565457129437.5,53,28,17,0,0,0,0,0
1565457129468.75,52,28,18,0,0,0,0,0
1565457129500,51,30,17,0,0,0,0,0
1565457129531.25,49,30,15,0,0,0,0,0
1565457129562.5,48,30,17,0,0,0,0,0
1565457129593.75,63,29,22,0,0,0,0,0
1565457129625,62,30,18,0,0,0,0,0
1565457129656.25,50,32,11,0,0,0,0,0
1565457129687.5,48,33,10,0,0,0,0,0
1565457129718.75,54,32,13,0,0,0,0,0
1565457129750,49,33,10,0,0,0,0,0
1565457129781.25,40,34,9,0,0,0,0,0
1565457129812.5,43,33,13,0,0,0,0,0
1565457129843.75,48,30,20,0,0,0,0,0
1565457129875,51,29,19,0,0,0,0,0
1565457129906.25,57,33,13,0,0,0,0,0
1565457129937.5,63,33,15,0,0,0,0,0
1565457129968.75,52,29,12,0,0,0,0,0
1565457130000,50,32,10,0,0,0,0,0
1565457130031.25,52,31,10,0,0,0,0,0
1565457130062.5,55,30,14,0,0,0,0,0
1565457130093.75,51,30,12,0,0,0,0,0
1565457130125,41,32,6,0,0,0,0,0
1565457130156.25,53,31,20,0,0,0,0,0
1565457130187.5,60,26,19,0,0,0,0,0
1565457130218.75,53,28,11,0,0,0,0,0
1565457130250,53,31,7,0,0,0,0,0
1565457130281.25,56,32,7,0,0,0,0,0
1565457130312.5,55,29,6,0,0,0,0,0
1565457130343.75,56,29,6,0,0,0,0,0
1565457130375,52,31,1,0,0,0,0,0
1565457130406.25,52,32,0,0,0,0,0,0
1565457130437.5,53,30,0,0,0,0,0,0
1565457130468.75,57,30,1,0,0,0,0,0
1565457130500,58,30,2,0,0,0,0,0
1565457130531.25,58,28,5,0,0,0,0,0
1565457130562.5,51,28,1,0,0,0,0,0
1565457130593.75,56,31,-1,0,0,0,0,0
1565457130625,57,31,-1,0,0,0,0,0
1565457130656.25,57,29,4,0,0,0,0,0
1565457130687.5,56,29,7,0,0,0,0,0
1565457130718.75,46,27,9,0,0,0,0,0
1565457130750,45,27,11,0,0,0,0,0
1565457130781.25,55,28,10,0,0,0,0,0
1565457130812.5,56,28,9,0,0,0,0,0
1565457130843.75,53,29,3,0,0,0,0,0
1565457130875,56,28,11,0,0,0,0,0
1565457130906.25,56,25,10,0,0,0,0,0
1565457130937.5,57,29,2,0,0,0,0,0
1565457130968.75,55,30,-1,0,0,0,0,0
1565457131000,48,27,1,0,0,0,0,0
1565457131031.25,47,26,0,0,0,0,0,0
1565457131062.5,59,26,-3,0,0,0,0,0
1565457131093.75,67,27,-3,0,0,0,0,0
1565457131125,55,26,-7,0,0,0,0,0
1565457131156.25,51,26,-7,0,0,0,0,0
1565457131187.5,44,24,-7,0,0,0,0,0
1565457131218.75,45,22,-13,0,0,0,0,0
1565457131250,93,24,0,0,0,0,0,0
1565457131281.25,56,23,-19,0,0,0,0,0
1565457131312.5,48,25,-18,0,0,0,0,0
1565457131343.75,46,25,-18,0,0,0,0,0
1565457131375,49,24,-13,0,0,0,0,0
1565457131406.25,51,24,-7,0,0,0,0,0
1565457131437.5,55,22,-6,0,0,0,0,0
1565457131468.75,63,21,-3,0,0,0,0,0
1565457131500,60,22,-7,0,0,0,0,0
1565457131531.25,55,23,-12,0,0,0,0,0
1565457131562.5,52,23,-12,0,0,0,0,0
1565457131593.75,50,21,-16,0,0,0,0,0
1565457131625,52,22,-17,0,0,0,0,0
1565457131656.25,57,21,-18,0,0,0,0,0
1565457131687.5,58,20,-18,0,0,0,0,0
1565457131718.75,57,20,-20,0,0,0,0,0
1565457131750,58,20,-21,0,0,0,0,0
1565457131781.25,57,20,-21,0,0,0,0,0
1565457131812.5,54,18,-19,0,0,0,0,0
1565457131843.75,56,19,-18,0,0,0,0,0
1565457131875,58,19,-24,0,0,0,0,0
1565457131906.25,59,21,-26,0,0,0,0,0
1565457131937.5,65,22,-25,0,0,0,0,0
1565457131968.75,67,23,-24,0,0,0,0,0
1565457132000,67,28,-26,0,0,0,0,0
1565457132031.25,64,30,-29,0,0,0,0,0
1565457132062.5,58,32,-32,0,0,0,0,0
1565457132093.75,52,36,-32,0,0,0,0,0
1565457132125,57,50,-1,0,0,0,0,0
1565457132156.25,33,51,11,0,0,0,0,0
1565457132187.5,18,57,-8,0,0,0,0,0
1565457132218.75,38,76,2,0,0,0,0,0
1565457132250,47,83,3,0,0,0,0,0
1565457132281.25,39,68,-12,0,0,0,0,0
1565457132312.5,23,50,-24,0,0,0,0,0
1565457132343.75,28,25,-6,0,0,0,0,0
1565457132375,34,16,-5,0,0,0,0,0
1565457132406.25,68,3,4,0,0,0,0,0
1565457132437.5,56,-1,11,0,0,0,0,0
1565457132468.75,34,-16,6,0,0,0,0,0
1565457132500,51,-27,19,0,0,0,0,0
1565457132531.25,55,-25,46,0,0,0,0,0
1565457132562.5,26,-24,33,0,0,0,0,0
1565457132593.75,50,-15,40,0,0,0,0,0
1565457132625,60,-23,34,0,0,0,0,0
1565457132656.25,52,-28,28,0,0,0,0,0
1565457132687.5,56,-32,33,0,0,0,0,0
1565457132718.75,57,-34,37,0,0,0,0,0
1565457132750,54,-35,38,0,0,0,0,0
1565457132781.25,47,-32,28,0,0,0,0,0
1565457132812.5,38,-30,36,0,0,0,0,0
1565457132843.75,55,-21,37,0,0,0,0,0
1565457132875,50,-14,31,0,0,0,0,0
1565457132906.25,41,-11,23,0,0,0,0,0
1565457132937.5,50,-20,34,0,0,0,0,0
1565457132968.75,50,-24,34,0,0,0,0,0
1565457133000,51,-20,29,0,0,0,0,0
1565457133031.25,58,-24,28,0,0,0,0,0
1565457133062.5,56,-26,30,0,0,0,0,0
1565457133093.75,38,-27,28,0,0,0,0,0
1565457133125,47,-23,24,0,0,0,0,0
1565457133156.25,58,-20,26,0,0,0,0,0
1565457133187.5,52,-24,33,0,0,0,0,0
1565457133218.75,47,-17,23,0,0,0,0,0
1565457133250,56,-21,24,0,0,0,0,0
1565457133281.25,56,-29,31,0,0,0,0,0
1565457133312.5,54,-30,32,0,0,0,0,0
1565457133343.75,48,-23,28,0,0,0,0,0
1565457133375,46,-18,21,0,0,0,0,0
1565457133406.25,50,-26,23,0,0,0,0,0
1565457133437.5,51,-26,25,0,0,0,0,0
1565457133468.75,59,-26,28,0,0,0,0,0
1565457133500,55,-25,17,0,0,0,0,0
1565457133531.25,52,-25,20,0,0,0,0,0
1565457133562.5,54,-27,29,0,0,0,0,0
1565457133593.75,53,-24,23,0,0,0,0,0
1565457133625,53,-23,25,0,0,0,0,0
1565457133656.25,52,-26,31,0,0,0,0,0
1565457133687.5,52,-24,30,0,0,0,0,0
1565457133718.75,52,-21,34,0,0,0,0,0
1565457133750,48,-22,32,0,0,0,0,0
1565457133781.25,47,-23,30,0,0,0,0,0
1565457133812.5,44,-20,30,0,0,0,0,0
1565457133843.75,44,-18,28,0,0,0,0,0
1565457133875,51,-21,37,0,0,0,0,0
1565457133906.25,53,-22,32,0,0,0,0,0
1565457133937.5,53,-21,35,0,0,0,0,0
1565457133968.75,49,-15,35,0,0,0,0,0
1565457134000,44,-16,27,0,0,0,0,0
1565457134031.25,51,-15,32,0,0,0,0,0
1565457134062.5,50,-16,33,0,0,0,0,0
1565457134093.75,57,-16,32,0,0,0,0,0
1565457134125,59,-16,31,0,0,0,0,0
1565457134156.25,49,-18,34,0,0,0,0,0
1565457134187.5,45,-15,25,0,0,0,0,0
1565457134218.75,51,-5,12,0,0,0,0,0
1565457134250,51,-9,23,0,0,0,0,0
1565457134281.25,55,-15,40,0,0,0,0,0
1565457134312.5,54,-14,38,0,0,0,0,0
1565457134343.75,48,-14,37,0,0,0,0,0
1565457134375,51,-11,26,0,0,0,0,0
1565457134406.25,51,-13,31,0,0,0,0,0
1565457134437.5,57,-15,38,0,0,0,0,0
1565457134468.75,47,-7,30,0,0,0,0,0
1565457134500,51,-8,32,0,0,0,0,0
1565457134531.25,50,-7,27,0,0,0,0,0
1565457134562.5,53,-14,30,0,0,0,0,0
1565457134593.75,52,-16,42,0,0,0,0,0
1565457134625,44,-15,41,0,0,0,0,0
1565457134656.25,51,-11,39,0,0,0,0,0
1565457134687.5,50,-11,29,0,0,0,0,0
1565457134718.75,47,-15,36,0,0,0,0,0
1565457134750,47,-12,37,0,0,0,0,0
1565457134781.25,58,-14,42,0,0,0,0,0
1565457134812.5,52,-17,42,0,0,0,0,0
1565457134843.75,49,-11,37,0,0,0,0,0
1565457134875,38,-12,23,0,0,0,0,0
1565457134906.25,50,-7,40,1,0,0,0,0
1565457134937.5,51,-10,45,1,0,0,0,0
1565457134968.75,36,-12,41,1,0,0,0,0
1565457135000,38,-7,33,1,0,0,0,0
1565457135031.25,43,-9,40,1,0,0,0,0
1565457135062.5,34,-15,52,1,0,0,0,0
1565457135093.75,33,-18,60,1,0,0,0,0
1565457135125,37,-13,45,1,0,0,0,0
1565457135156.25,41,-15,44,1,0,0,0,0
1565457135187.5,41,-24,63,0,0,0,0,0
1565457135218.75,39,-20,53,0,0,0,0,0
1565457135250,33,-14,49,0,0,0,0,0
1565457135281.25,29,-17,53,0,0,0,0,0
1565457135312.5,29,-14,46,0,0,0,0,0
1565457135343.75,29,-13,46,0,0,0,0,0
1565457135375,35,-16,54,0,0,0,0,0
1565457135406.25,37,-18,56,0,0,0,0,0
1565457135437.5,37,-18,54,0,0,0,0,0
1565457135468.75,36,-15,53,0,0,0,0,0
1565457135500,30,-16,50,0,0,0,0,0
1565457135531.25,32,-17,53,0,0,0,0,0
1565457135562.5,29,-16,51,0,0,0,0,0
1565457135593.75,32,-14,50,0,0,0,0,0
1565457135625,35,-13,50,0,0,0,0,0
1565457135656.25,39,-16,53,0,0,0,0,0
1565457135687.5,38,-16,56,0,0,0,0,0
1565457135718.75,36,-15,58,0,0,0,0,0
1565457135750,36,-14,57,0,0,0,0,0
1565457135781.25,39,-17,49,0,0,0,0,0
1565457135812.5,44,-15,46,0,0,0,0,0
1565457135843.75,43,-20,55,0,0,0,0,0
1565457135875,43,-24,66,0,0,0,0,0
1565457135906.25,31,-21,67,0,0,0,0,0
1565457135937.5,28,-24,61,0,0,0,0,0
1565457135968.75,41,-29,45,0,0,0,0,0
1565457136000,50,-26,28,0,0,0,0,0
1565457136031.25,47,-18,21,0,0,0,0,0
1565457136062.5,45,-11,17,0,0,0,0,0
1565457136093.75,42,4,8,0,0,0,0,0
1565457136125,37,6,16,0,0,0,0,0
1565457136156.25,49,1,30,0,0,0,0,0
1565457136187.5,46,14,4,0,0,0,0,0
1565457136218.75,45,35,-11,0,0,0,0,0
1565457136250,43,75,-44,0,0,0,0,0
1565457136281.25,47,73,-35,0,0,0,0,0
1565457136312.5,40,63,-9,0,0,0,0,0
1565457136343.75,29,62,-13,0,0,0,0,0
1565457136375,14,69,-8,0,0,0,0,0
1565457136406.25,25,102,0,0,0,0,0,0
1565457136437.5,52,84,-1,0,0,0,0,0
1565457136468.75,61,59,-7,0,0,0,0,0
1565457136500,44,29,-11,0,0,0,0,0
1565457136531.25,51,26,-3,0,0,0,0,0
1565457136562.5,56,30,-4,0,0,0,0,0
1565457136593.75,60,46,8,0,0,0,0,0
1565457136625,54,47,10,0,0,0,0,0
1565457136656.25,42,40,-9,0,0,0,0,0
1565457136687.5,45,39,-13,0,0,0,0,0
1565457136718.75,45,45,-15,0,0,0,0,0
1565457136750,43,46,-17,0,0,0,0,0
1565457136781.25,41,45,-14,0,0,0,0,0
1565457136812.5,43,43,-12,0,0,0,0,0
1565457136843.75,45,44,-13,0,0,0,0,0
1565457136875,45,45,-13,0,0,0,0,0
1565457136906.25,44,42,-13,0,0,0,0,0
1565457136937.5,43,44,-14,0,0,0,0,0
1565457136968.75,43,45,-15,0,0,0,0,0
1565457137000,45,42,-13,0,0,0,0,0
1565457137031.25,44,43,-12,0,0,0,0,0
1565457137062.5,44,43,-12,0,0,0,0,0
1565457137093.75,45,42,-13,0,0,0,0,0
1565457137125,45,43,-12,0,0,0,0,0
1565457137156.25,44,42,-11,0,0,0,0,0
1565457137187.5,44,44,-12,0,0,0,0,0
1565457137218.75,45,45,-12,0,0,0,0,0
1565457137250,44,41,-11,0,0,0,0,0
1565457137281.25,43,43,-10,0,0,0,0,0
1565457137312.5,45,43,-10,0,0,0,0,0
1565457137343.75,45,41,-10,0,0,0,0,0
1565457137375,47,44,-10,0,0,0,0,0
1565457137406.25,44,41,-9,0,0,0,0,0
1565457137437.5,44,42,-9,0,0,0,0,0
1565457137468.75,45,43,-8,0,0,0,0,0
1565457137500,46,43,-9,0,0,0,0,0
1565457137531.25,47,43,-12,0,0,0,0,0
1565457137562.5,46,44,-11,0,0,0,0,0
1565457137593.75,45,43,-7,0,0,0,0,0
1565457137625,45,43,-6,0,0,0,0,0
1565457137656.25,48,44,-6,0,0,0,0,0
1565457137687.5,49,43,-6,0,0,0,0,0
1565457137718.75,42,43,-5,0,0,0,0,0
1565457137750,41,43,-4,0,0,0,0,0
1565457137781.25,42,44,-2,0,0,0,0,0
1565457137812.5,43,44,-1,0,0,0,0,0
1565457137843.75,46,43,-2,0,0,0,0,0
1565457137875,48,44,-3,0,0,0,0,0
1565457137906.25,46,45,-3,0,0,0,0,0
1565457137937.5,44,43,-2,0,0,0,0,0
1565457137968.75,44,44,-1,0,0,0,0,0
1565457138000,46,44,-1,0,0,0,0,0
1565457138031.25,45,42,-1,0,0,0,0,0
1565457138062.5,46,45,1,0,0,0,0,0
1565457138093.75,46,44,0,0,0,0,0,0
1565457138125,44,44,0,0,0,0,0,0
1565457138156.25,45,44,0,0,0,0,0,0
1565457138187.5,46,44,1,0,0,0,0,0
1565457138218.75,47,43,1,0,0,0,0,0
1565457138250,45,44,2,0,0,0,0,0
1565457138281.25,47,45,0,0,0,0,0,0
1565457138312.5,46,44,-1,0,0,0,0,0
1565457138343.75,43,46,-1,0,0,0,0,0
1565457138375,43,45,-1,0,0,0,0,0
1565457138406.25,43,46,-1,0,0,0,0,0
1565457138437.5,43,46,0,0,0,0,0,0
1565457138468.75,42,45,1,0,0,0,0,0
1565457138500,44,46,3,0,0,0,0,0
1565457138531.25,44,45,2,0,0,0,0,0
1565457138562.5,44,46,1,0,0,0,0,0
1565457138593.75,40,45,2,0,0,0,0,0
1565457138625,42,45,2,0,0,0,0,0
1565457138656.25,44,46,2,0,0,0,0,0
1565457138687.5,43,45,2,0,0,0,0,0
1565457138718.75,43,46,2,0,0,0,0,0
1565457138750,44,45,2,0,0,0,0,0
1565457138781.25,44,46,2,0,0,0,0,0
1565457138812.5,43,45,2,0,0,0,0,0
1565457138843.75,44,46,3,0,0,0,0,0
1565457138875,44,46,1,0,0,0,0,0
1565457138906.25,43,46,0,0,0,0,0,0
1565457138937.5,40,46,0,0,0,0,0,0
1565457138968.75,41,46,2,0,0,0,0,0
1565457139000,45,46,2,0,0,0,0,0
1565457139031.25,45,45,2,0,0,0,0,0
1565457139062.5,43,46,1,0,0,0,0,0
1565457139093.75,42,46,2,0,0,0,0,0
1565457139125,43,45,1,0,0,0,0,0
1565457139156.25,43,47,1,0,0,0,0,0
1565457139187.5,43,46,1,0,0,0,0,0
1565457139218.75,44,46,2,0,0,0,0,0
1565457139250,44,45,0,0,0,0,0,0
1565457139281.25,43,47,-1,0,0,0,0,0
1565457139312.5,43,47,-1,0,0,0,0,0
1565457139343.75,43,44,1,0,0,0,0,0
1565457139375,43,45,2,0,0,0,0,0
1565457139406.25,43,46,-1,0,0,0,0,0
1565457139437.5,43,46,-3,0,0,0,0,0
1565457139468.75,43,46,-1,0,0,0,0,0
1565457139500,43,46,0,0,0,0,0,0
1565457139531.25,45,45,0,0,0,0,0,0
1565457139562.5,45,46,0,0,0,0,0,0
1565457139593.75,44,45,-1,0,0,0,0,0
1565457139625,43,46,0,0,0,0,0,0
1565457139656.25,43,46,-1,0,0,0,0,0
1565457139687.5,43,45,-1,0,0,0,0,0
1565457139718.75,43,46,-1,0,0,0,0,0
1565457139750,44,46,0,0,0,0,0,0
1565457139781.25,44,45,0,0,0,0,0,0
1565457139812.5,43,46,0,0,0,0,0,0
1565457139843.75,44,46,1,0,0,0,0,0
1565457139875,44,45,2,0,0,0,0,0
1565457139906.25,42,45,0,0,0,0,0,0
1565457139937.5,43,46,0,0,0,0,0,0
1565457139968.75,44,46,0,0,0,0,0,0
1565457140000,43,46,0,0,0,0,0,0
1565457140031.25,43,46,0,0,0,0,0,0
1565457140062.5,44,46,1,0,0,0,0,0
1565457140093.75,45,45,1,0,0,0,0,0
1565457140125,44,46,0,0,0,0,0,0
1565457140156.25,43,46,0,0,0,0,0,0
1565457140187.5,43,46,0,0,0,0,0,0
1565457140218.75,44,46,0,0,0,0,0,0
1565457140250,44,46,0,0,0,0,0,0
1565457140281.25,44,46,0,0,0,0,0,0
1565457140312.5,44,46,0,0,0,0,0,0
1565457140343.75,44,45,0,0,0,0,0,0
1565457140375,43,45,1,0,0,0,0,0
1565457140406.25,44,46,0,0,0,0,0,0
1565457140437.5,44,45,0,0,0,0,0,0
1565457140468.75,43,46,1,0,0,0,0,0
1565457140500,44,45,0,0,0,0,0,0
1565457140531.25,44,46,0,0,0,0,0,0
1565457140562.5,43,45,0,0,0,0,0,0
1565457140593.75,45,45,1,0,0,0,0,0
1565457140625,43,46,0,0,0,0,0,0
1565457140656.25,43,45,0,0,0,0,0,0
1565457140687.5,44,45,1,0,0,0,0,0
1565457140718.75,45,46,1,0,0,0,0,0
1565457140750,44,45,1,0,0,0,0,0
1565457140781.25,43,46,1,0,0,0,0,0
1565457140812.5,45,45,1,0,0,0,0,0
1565457140843.75,44,45,0,0,0,0,0,0
1565457140875,43,46,0,0,0,0,0,0
1565457140906.25,43,45,0,0,0,0,0,0
1565457140937.5,44,45,0,0,0,0,0,0
1565457140968.75,45,45,0,0,0,0,0,0
1565457141000,45,45,0,0,0,0,0,0
1565457141031.25,43,46,0,0,0,0,0,0
1565457141062.5,43,45,1,0,0,0,0,0
1565457141093.75,44,46,1,0,0,0,0,0
1565457141125,44,46,1,0,0,0,0,0
1565457141156.25,41,45,1,0,0,0,0,0
1565457141187.5,42,46,1,0,0,0,0,0
1565457141218.75,47,45,1,0,0,0,0,0
1565457141250,47,46,1,0,0,0,0,0
1565457141281.25,45,45,1,0,0,0,0,0
1565457141312.5,42,45,1,0,0,0,0,0
1565457141343.75,44,45,2,0,0,0,0,0
1565457141375,45,44,2,0,0,0,0,0
1565457141406.25,44,45,2,0,0,0,0,0
1565457141437.5,44,45,2,0,0,0,0,0
1565457141468.75,44,45,1,0,0,0,0,0
1565457141500,45,45,2,0,0,0,0,0
1565457141531.25,44,44,1,0,0,0,0,0
1565457141562.5,46,45,2,0,0,0,0,0
1565457141593.75,45,45,2,0,0,0,0,0
1565457141625,44,45,2,0,0,0,0,0
1565457141656.25,44,45,2,0,0,0,0,0
1565457141687.5,44,45,2,0,0,0,0,0
1565457141718.75,44,45,1,0,0,0,0,0
1565457141750,44,44,2,0,0,0,0,0
1565457141781.25,45,45,1,0,0,0,0,0
1565457141812.5,44,45,2,0,0,0,0,0
1565457141843.75,45,45,2,0,0,0,0,0
1565457141875,45,45,2,0,0,0,0,0
1565457141906.25,44,44,2,0,0,0,0,0
1565457141937.5,45,45,2,0,0,0,0,0
1565457141968.75,45,44,2,0,0,0,0,0
1565457142000,44,45,2,0,0,0,0,0
1565457142031.25,45,44,1,0,0,0,0,0
1565457142062.5,45,44,2,0,0,0,0,0
1565457142093.75,44,44,2,0,0,0,0,0
1565457142125,44,45,2,0,0,0,0,0
1565457142156.25,45,44,2,0,0,0,0,0
1565457142187.5,44,44,1,0,0,0,0,0
1565457142218.75,44,44,2,0,0,0,0,0
1565457142250,44,44,1,0,0,0,0,0
1565457142281.25,44,45,1,0,0,0,0,0
1565457142312.5,47,44,1,0,0,0,0,0
1565457142343.75,48,45,1,0,0,0,0,0
1565457142375,44,44,0,0,0,0,0,0
1565457142406.25,43,45,0,0,0,0,0,0
1565457142437.5,43,44,1,0,0,0,0,0
1565457142468.75,44,44,1,0,0,0,0,0
1565457142500,45,45,1,0,0,0,0,0
1565457142531.25,46,45,1,0,0,0,0,0
1565457142562.5,44,45,0,0,0,0,0,0
1565457142593.75,44,45,0,0,0,0,0,0
1565457142625,44,45,0,0,0,0,0,0
1565457142656.25,45,45,0,0,0,0,0,0
1565457142687.5,44,45,0,0,0,0,0,0
1565457142718.75,44,45,0,0,0,0,0,0
1565457142750,44,45,0,0,0,0,0,0
1565457142781.25,45,45,0,0,0,0,0,0
1565457142812.5,44,45,0,0,0,0,0,0
1565457142843.75,44,45,0,0,0,0,0,0
1565457142875,45,45,0,0,0,0,0,0
1565457142906.25,45,45,0,0,0,0,0,0
1565457142937.5,45,45,0,0,0,0,0,0
1565457142968.75,44,45,0,0,0,0,0,0
1565457143000,45,45,1,0,0,0,0,0
1565457143031.25,45,45,2,0,0,0,0,0
1565457143062.5,42,44,3,0,0,0,0,0
1565457143093.75,42,45,3,0,0,0,0,0
1565457143125,45,45,3,0,0,0,0,0
1565457143156.25,47,44,3,0,0,0,0,0
1565457143187.5,46,45,3,0,0,0,0,0
1565457143218.75,44,44,3,0,0,0,0,0
1565457143250,42,45,3,0,0,0,0,0
1565457143281.25,43,45,3,0,0,0,0,0
1565457143312.5,44,45,5,0,0,0,0,0
1565457143343.75,45,45,5,0,0,0,0,0
1565457143375,46,44,4,0,0,0,0,0
1565457143406.25,45,45,4,0,0,0,0,0
1565457143437.5,44,45,5,0,0,0,0,0
1565457143468.75,43,44,5,0,0,0,0,0
1565457143500,43,45,6,0,0,0,0,0
1565457143531.25,43,44,6,0,0,0,0,0
1565457143562.5,44,44,6,0,0,0,0,0
1565457143593.75,46,44,5,0,0,0,0,0
1565457143625,45,45,5,0,0,0,0,0
1565457143656.25,46,44,5,0,0,0,0,0
1565457143687.5,46,44,6,0,0,0,0,0
1565457143718.75,43,45,5,0,0,0,0,0
1565457143750,43,45,5,0,0,0,0,0
1565457143781.25,45,44,5,0,0,0,0,0
1565457143812.5,45,45,5,0,0,0,0,0
1565457143843.75,45,44,6,0,0,0,0,0
1565457143875,45,44,6,0,0,0,0,0
1565457143906.25,44,44,6,0,0,0,0,0
1565457143937.5,45,45,5,0,0,0,0,0
1565457143968.75,44,45,5,0,0,0,0,0
1565457144000,44,44,5,0,0,0,0,0
1565457144031.25,44,44,5,0,0,0,0,0
1565457144062.5,43,44,5,0,0,0,0,0
1565457144093.75,45,44,5,0,0,0,0,0
1565457144125,43,44,4,0,0,0,0,0
1565457144156.25,43,44,4,0,0,0,0,0
1565457144187.5,44,44,4,0,0,0,0,0
1565457144218.75,44,44,4,0,0,0,0,0
1565457144250,42,42,6,0,0,0,0,0
1565457144281.25,39,41,9,0,0,0,0,0
1565457144312.5,34,39,13,0,0,0,0,0
1565457144343.75,33,36,12,0,0,0,0,0
1565457144375,31,36,3,0,0,0,0,0
1565457144406.25,34,36,-5,0,0,0,0,0
1565457144437.5,50,37,-4,0,0,0,0,0
1565457144468.75,50,29,-10,0,0,0,0,0
1565457144500,35,26,-11,0,0,0,0,0
1565457144531.25,57,20,-17,0,0,0,0,0
1565457144562.5,127,-24,19,0,0,0,0,0
1565457144593.75,37,82,-2,0,0,0,0,0
1565457144625,36,36,-2,0,0,0,0,0
1565457144656.25,80,27,37,0,0,0,0,0
1565457144687.5,67,22,33,0,0,0,0,0
1565457144718.75,70,11,23,0,0,0,0,0
1565457144750,60,4,22,0,0,0,0,0
1565457144781.25,61,-4,25,0,0,0,0,0
1565457144812.5,40,-12,18,0,0,0,0,0
1565457144843.75,38,-18,21,0,0,0,0,0
1565457144875,34,-39,27,0,0,0,0,0
1565457144906.25,49,-51,27,0,0,0,0,0
1565457144937.5,41,-45,24,0,0,0,0,0
1565457144968.75,39,-34,32,0,0,0,0,0
1565457145000,40,-24,39,0,0,0,0,0
1565457145031.25,38,-21,32,0,0,0,0,0
1565457145062.5,33,-16,23,0,0,0,0,0
1565457145093.75,27,-12,21,0,0,0,0,0
1565457145125,4,-16,6,0,0,0,0,0
1565457145156.25,7,-24,-3,0,0,0,0,0
1565457145187.5,46,-40,39,0,0,0,0,0
1565457145218.75,-97,-128,8,0,0,0,0,0
1565457145250,5,-29,9,0,0,0,0,0
1565457145281.25,33,-36,43,0,0,0,0,0
1565457145312.5,23,-21,25,0,0,0,0,0
1565457145343.75,29,-48,31,0,0,0,0,0
1565457145375,10,-47,17,0,0,0,0,0
1565457145406.25,26,-63,30,0,0,0,0,0
1565457145437.5,24,-66,25,0,0,0,0,0
1565457145468.75,16,-63,23,0,0,0,0,0
1565457145500,19,-59,19,0,0,0,0,0
1565457145531.25,4,-55,17,0,0,0,0,0
1565457145562.5,6,-52,19,0,0,0,0,0
1565457145593.75,8,-58,15,0,0,0,0,0
1565457145625,4,-67,13,0,0,0,0,0
1565457145656.25,7,-62,17,0,0,0,0,0
1565457145687.5,5,-67,13,0,0,0,0,0
1565457145718.75,3,-67,12,0,0,0,0,0
1565457145750,7,-64,15,0,0,0,0,0
1565457145781.25,7,-66,12,0,0,0,0,0
1565457145812.5,8,-61,15,0,0,0,0,0
1565457145843.75,7,-64,14,0,0,0,0,0
1565457145875,6,-64,13,0,0,0,0,0
1565457145906.25,7,-64,14,0,0,0,0,0
1565457145937.5,5,-65,12,0,0,0,0,0
1565457145968.75,6,-64,12,0,0,0,0,0
1565457146000,5,-64,12,0,0,0,0,0
1565457146031.25,3,-63,10,0,0,0,0,0
1565457146062.5,10,-64,14,0,0,0,0,0
1565457146093.75,1,-68,9,0,0,0,0,0
1565457146125,4,-62,14,0,0,0,0,0
1565457146156.25,15,-79,20,0,0,0,0,0
1565457146187.5,-3,-79,7,0,0,0,0,0
1565457146218.75,29,-32,30,0,0,0,0,0
1565457146250,50,-44,29,0,0,0,0,0
1565457146281.25,30,-50,22,0,0,0,0,0
1565457146312.5,28,-46,19,0,0,0,0,0
1565457146343.75,32,-33,18,0,0,0,0,0
1565457146375,42,-30,22,0,0,0,0,0
1565457146406.25,47,-46,31,0,0,0,0,0
1565457146437.5,38,-49,30,0,0,0,0,0
1565457146468.75,35,-37,29,0,0,0,0,0
1565457146500,46,-34,34,0,0,0,0,0
1565457146531.25,40,-35,34,0,0,0,0,0
1565457146562.5,36,-38,34,0,0,0,0,0
1565457146593.75,36,-38,35,0,0,0,0,0
1565457146625,38,-37,33,0,0,0,0,0
1565457146656.25,39,-38,33,0,0,0,0,0
1565457146687.5,38,-39,32,0,0,0,0,0
1565457146718.75,38,-39,31,0,0,0,0,0
1565457146750,38,-37,30,0,0,0,0,0
1565457146781.25,40,-37,31,0,0,0,0,0
1565457146812.5,38,-39,32,0,0,0,0,0
1565457146843.75,36,-37,30,0,0,0,0,0
1565457146875,44,-37,35,0,0,0,0,0
1565457146906.25,41,-39,35,0,0,0,0,0
1565457146937.5,37,-37,33,0,0,0,0,0
1565457146968.75,38,-36,33,0,0,0,0,0
1565457147000,41,-38,34,0,0,0,0,0
1565457147031.25,37,-39,32,0,0,0,0,0
1565457147062.5,35,-36,30,0,0,0,0,0
1565457147093.75,43,-38,34,0,0,0,0,0
1565457147125,39,-41,33,0,0,0,0,0
1565457147156.25,38,-37,31,0,0,0,0,0
1565457147187.5,39,-36,32,0,0,0,0,0
1565457147218.75,39,-40,32,0,0,0,0,0
1565457147250,37,-39,32,0,0,0,0,0
1565457147281.25,39,-39,33,0,0,0,0,0
1565457147312.5,38,-38,32,0,0,0,0,0
1565457147343.75,38,-37,32,0,0,0,0,0
1565457147375,40,-39,33,0,0,0,0,0
1565457147406.25,38,-39,32,0,0,0,0,0
1565457147437.5,38,-37,32,0,0,0,0,0
1565457147468.75,40,-38,33,0,0,0,0,0
1565457147500,38,-39,32,0,0,0,0,0
1565457147531.25,38,-38,32,0,0,0,0,0
1565457147562.5,39,-38,32,0,0,0,0,0
1565457147593.75,39,-39,32,0,0,0,0,0
1565457147625,38,-38,32,0,0,0,0,0
1565457147656.25,39,-38,32,0,0,0,0,0
1565457147687.5,39,-40,33,0,0,0,0,0
1565457147718.75,38,-39,32,0,0,0,0,0
1565457147750,40,-38,33,0,0,0,0,0
1565457147781.25,39,-39,32,0,0,0,0,0
1565457147812.5,39,-39,32,0,0,0,0,0
1565457147843.75,40,-39,33,0,0,0,0,0
1565457147875,40,-40,32,0,0,0,0,0
1565457147906.25,38,-38,31,0,0,0,0,0
1565457147937.5,38,-37,33,0,0,0,0,0
1565457147968.75,40,-35,33,0,0,0,0,0
1565457148000,38,-38,34,0,0,0,0,0
1565457148031.25,43,-38,30,0,0,0,0,0
1565457148062.5,46,-37,27,0,0,0,0,0
1565457148093.75,30,-40,31,0,0,0,0,0
1565457148125,35,-40,34,0,0,0,0,0
1565457148156.25,34,-43,20,0,0,0,0,0
1565457148187.5,25,-41,17,0,0,0,0,0
1565457148218.75,26,-52,12,0,0,0,0,0
1565457148250,19,-51,6,0,0,0,0,0
1565457148281.25,36,-64,13,0,0,0,0,0
1565457148312.5,30,-71,13,0,0,0,0,0
1565457148343.75,23,-69,10,0,0,0,0,0
1565457148375,19,-74,6,0,0,0,0,0
1565457148406.25,8,-85,-4,0,0,0,0,0
1565457148437.5,4,-77,-7,0,0,0,0,0
1565457148468.75,10,-71,-7,0,0,0,0,0
1565457148500,-9,-76,-9,0,0,0,0,0
1565457148531.25,-6,-82,-11,0,0,0,0,0
1565457148562.5,-14,-64,-8,0,0,0,0,0
1565457148593.75,12,-52,8,0,0,0,0,0
1565457148625,-8,-71,6,0,0,0,0,0
1565457148656.25,-12,-74,17,0,0,0,0,0
1565457148687.5,-9,-50,-9,0,0,0,0,0
1565457148718.75,17,-54,-16,0,0,0,0,0
1565457148750,23,-59,-11,0,0,0,0,0
1565457148781.25,23,-62,-8,0,0,0,0,0
1565457148812.5,15,-63,-15,0,0,0,0,0
1565457148843.75,15,-63,-39,0,0,0,0,0
1565457148875,14,-63,-48,0,0,0,0,0
1565457148906.25,18,-53,-43,0,0,0,0,0
1565457148937.5,17,-46,-47,0,0,0,0,0
1565457148968.75,11,-48,-73,0,0,0,0,0
1565457149000,20,-50,-69,0,0,0,0,0
1565457149031.25,31,-50,-48,0,0,0,0,0
1565457149062.5,30,-49,-46,0,0,0,0,0
1565457149093.75,32,-50,-42,0,0,0,0,0
1565457149125,31,-45,-42,0,0,0,0,0
1565457149156.25,19,-35,-37,0,0,0,0,0
1565457149187.5,22,-27,-24,0,0,0,0,0
1565457149218.75,25,-26,-20,0,0,0,0,0
1565457149250,26,-29,-40,0,0,0,0,0
1565457149281.25,32,-31,-25,0,0,0,0,0
1565457149312.5,46,-31,-24,0,0,0,0,0
1565457149343.75,48,-9,-43,0,0,0,0,0
1565457149375,51,2,-37,0,0,0,0,0
1565457149406.25,49,0,-42,0,0,0,0,0
1565457149437.5,44,-14,-51,0,0,0,0,0
1565457149468.75,51,-17,-41,0,0,0,0,0
1565457149500,34,-10,-43,0,0,0,0,0
1565457149531.25,22,-10,-48,0,0,0,0,0
1565457149562.5,85,-29,22,0,0,0,0,0
1565457149593.75,43,-33,-20,0,0,0,0,0
1565457149625,50,-19,-34,0,0,0,0,0
1565457149656.25,53,-3,-34,0,0,0,0,0
1565457149687.5,53,6,-30,0,0,0,0,0
1565457149718.75,32,9,-41,0,0,0,0,0
1565457149750,40,3,-36,0,0,0,0,0
1565457149781.25,55,-3,-33,0,0,0,0,0
1565457149812.5,43,-5,-50,0,0,0,0,0
1565457149843.75,45,-16,-39,0,0,0,0,0
1565457149875,40,-34,-18,0,0,0,0,0
1565457149906.25,41,-35,-20,0,0,0,0,0
1565457149937.5,46,-31,-25,0,0,0,0,0
1565457149968.75,70,-27,-30,0,0,0,0,0
1565457150000,33,-14,-32,0,0,0,0,0
1565457150031.25,40,-20,-38,0,0,0,0,0
1565457150062.5,46,-44,-47,0,0,0,0,0
1565457150093.75,58,-54,-46,0,0,0,0,0
1565457150125,53,-37,-27,0,0,0,0,0
1565457150156.25,46,-33,-22,0,0,0,0,0
1565457150187.5,48,-30,-28,0,0,0,0,0
1565457150218.75,45,-30,-30,0,0,0,0,0
1565457150250,62,-37,-20,0,0,0,0,0
1565457150281.25,60,-38,-23,0,0,0,0,0
1565457150312.5,41,-41,-28,0,0,0,0,0
1565457150343.75,41,-42,-26,0,0,0,0,0
1565457150375,31,-39,-25,0,0,0,0,0
1565457150406.25,25,-41,-25,0,0,0,0,0
1565457150437.5,22,-47,-26,0,0,0,0,0
1565457150468.75,29,-44,-21,0,0,0,0,0
1565457150500,36,-41,-19,0,0,0,0,0
1565457150531.25,39,-42,-22,0,0,0,0,0
1565457150562.5,41,-45,-24,0,0,0,0,0
1565457150593.75,39,-45,-24,0,0,0,0,0
1565457150625,40,-50,-27,0,0,0,0,0
1565457150656.25,46,-58,-42,0,0,0,0,0
1565457150687.5,46,-47,-38,0,0,0,0,0
1565457150718.75,39,-27,-26,0,0,0,0,0
1565457150750,35,-24,-27,0,0,0,0,0
1565457150781.25,25,-32,-39,0,0,0,0,0
1565457150812.5,22,-36,-44,0,0,0,0,0
1565457150843.75,29,-43,-31,0,0,0,0,0
1565457150875,33,-34,-43,0,0,0,0,0
1565457150906.25,28,-32,-46,0,0,0,0,0
1565457150937.5,26,-34,-40,0,0,0,0,0
1565457150968.75,32,-34,-38,0,0,0,0,0
1565457151000,31,-28,-41,0,0,0,0,0
1565457151031.25,28,-26,-38,0,0,0,0,0
1565457151062.5,32,-25,-37,0,0,0,0,0
1565457151093.75,35,-25,-41,0,0,0,0,0
1565457151125,36,-30,-41,0,0,0,0,0
1565457151156.25,34,-33,-41,0,0,0,0,0
1565457151187.5,33,-42,-37,0,0,0,0,0
1565457151218.75,20,-48,-31,0,0,0,0,0
1565457151250,20,-48,-30,0,0,0,0,0
1565457151281.25,28,-51,-33,0,0,0,0,0
1565457151312.5,35,-71,-51,0,0,0,0,0
1565457151343.75,31,-42,-27,0,0,0,0,0
1565457151375,53,-36,-7,0,0,0,0,0
1565457151406.25,38,-64,-21,0,0,0,0,0
1565457151437.5,33,-82,-28,0,0,0,0,0
1565457151468.75,19,-74,-34,0,0,0,0,0
1565457151500,25,-60,-15,0,0,0,0,0
1565457151531.25,7,-47,-12,0,0,0,0,0
1565457151562.5,10,-51,-8,0,0,0,0,0
1565457151593.75,14,-59,-13,0,0,0,0,0
1565457151625,22,-58,-12,0,0,0,0,0
1565457151656.25,26,-49,-12,0,0,0,0,0
1565457151687.5,26,-48,-14,0,0,0,0,0
1565457151718.75,23,-49,-17,0,0,0,0,0
1565457151750,24,-58,-18,0,0,0,0,0
1565457151781.25,25,-63,-18,0,0,0,0,0
1565457151812.5,35,-62,-16,0,0,0,0,0
1565457151843.75,31,-57,-16,0,0,0,0,0
1565457151875,27,-50,-13,0,0,0,0,0
1565457151906.25,29,-49,-13,0,0,0,0,0
1565457151937.5,30,-50,-14,0,0,0,0,0
1565457151968.75,32,-51,-13,0,0,0,0,0
1565457152000,38,-56,-6,0,0,0,0,0
1565457152031.25,35,-53,-4,0,0,0,0,0
1565457152062.5,31,-56,-2,0,0,0,0,0
1565457152093.75,31,-60,-3,0,0,0,0,0
1565457152125,29,-58,-7,0,0,0,0,0
1565457152156.25,29,-57,-4,0,0,0,0,0
1565457152187.5,28,-57,-2,0,0,0,0,0
1565457152218.75,26,-57,-3,0,0,0,0,0
1565457152250,26,-57,-2,0,0,0,0,0
1565457152281.25,23,-57,-4,0,0,0,0,0
1565457152312.5,23,-56,-5,0,0,0,0,0
1565457152343.75,25,-58,-4,0,0,0,0,0
1565457152375,25,-58,-5,0,0,0,0,0
1565457152406.25,26,-55,-4,0,0,0,0,0
1565457152437.5,27,-57,-3,0,0,0,0,0
1565457152468.75,28,-59,-4,0,0,0,0,0
1565457152500,27,-59,-5,0,0,0,0,0
1565457152531.25,26,-60,-4,0,0,0,0,0
1565457152562.5,26,-61,-4,0,0,0,0,0
1565457152593.75,24,-59,-5,0,0,0,0,0
1565457152625,24,-59,-3,0,0,0,0,0
1565457152656.25,24,-58,-3,0,0,0,0,0
1565457152687.5,24,-56,-2,0,0,0,0,0
1565457152718.75,25,-57,-1,0,0,0,0,0
1565457152750,26,-57,-1,0,0,0,0,0
1565457152781.25,26,-58,-1,0,0,0,0,0
1565457152812.5,27,-58,-1,0,0,0,0,0
1565457152843.75,26,-57,-1,0,0,0,0,0
1565457152875,27,-57,1,0,0,0,0,0
1565457152906.25,27,-57,0,0,0,0,0,0
1565457152937.5,28,-57,-1,0,0,0,0,0
1565457152968.75,28,-57,0,0,0,0,0,0
1565457153000,27,-58,-2,0,0,0,0,0
1565457153031.25,27,-58,-2,0,0,0,0,0
1565457153062.5,27,-57,-1,0,0,0,0,0
1565457153093.75,27,-58,-2,0,0,0,0,0
1565457153125,27,-58,-2,0,0,0,0,0
1565457153156.25,27,-57,-2,0,0,0,0,0
1565457153187.5,27,-57,-2,0,0,0,0,0
1565457153218.75,27,-58,-1,0,0,0,0,0
1565457153250,28,-58,-1,0,0,0,0,0
1565457153281.25,28,-57,0,0,0,0,0,0
1565457153312.5,28,-57,0,0,0,0,0,0
1565457153343.75,27,-57,0,0,0,0,0,0
1565457153375,28,-57,0,0,0,0,0,0
1565457153406.25,27,-57,1,0,0,0,0,0
1565457153437.5,27,-57,0,0,0,0,0,0
1565457153468.75,26,-58,0,0,0,0,0,0
1565457153500,25,-59,0,0,0,0,0,0
1565457153531.25,25,-59,0,0,0,0,0,0
1565457153562.5,25,-57,0,0,0,0,0,0
1565457153593.75,25,-57,0,0,0,0,0,0
1565457153625,25,-58,0,0,0,0,0,0
1565457153656.25,24,-58,-1,0,0,0,0,0
1565457153687.5,26,-58,1,0,0,0,0,0
1565457153718.75,25,-58,0,0,0,0,0,0
1565457153750,26,-58,1,0,0,0,0,0
1565457153781.25,26,-58,1,0,0,0,0,0
1565457153812.5,25,-58,1,0,0,0,0,0
1565457153843.75,25,-59,1,0,0,0,0,0
1565457153875,25,-58,2,0,0,0,0,0
1565457153906.25,25,-58,1,0,0,0,0,0
1565457153937.5,25,-58,1,0,0,0,0,0
1565457153968.75,24,-59,0,0,0,0,0,0
1565457154000,24,-59,0,0,0,0,0,0
1565457154031.25,25,-58,0,0,0,0,0,0
1565457154062.5,25,-58,0,0,0,0,0,0
1565457154093.75,25,-58,0,0,0,0,0,0
1565457154125,25,-57,0,0,0,0,0,0
1565457154156.25,25,-59,0,0,0,0,0,0
1565457154187.5,26,-59,1,0,0,0,0,0
1565457154218.75,26,-58,1,0,0,0,0,0
1565457154250,25,-59,1,0,0,0,0,0
1565457154281.25,25,-59,1,0,0,0,0,0
1565457154312.5,25,-59,1,0,0,0,0,0
1565457154343.75,25,-58,1,0,0,0,0,0
1565457154375,25,-58,1,0,0,0,0,0
1565457154406.25,25,-58,1,0,0,0,0,0
1565457154437.5,26,-58,0,0,0,0,0,0
1565457154468.75,26,-58,0,0,0,0,0,0
1565457154500,26,-58,0,0,0,0,0,0
1565457154531.25,27,-57,0,0,0,0,0,0
1565457154562.5,26,-57,1,0,0,0,0,0
1565457154593.75,26,-58,1,0,0,0,0,0
1565457154625,26,-58,0,0,0,0,0,0
1565457154656.25,26,-58,1,0,0,0,0,0
1565457154687.5,25,-58,1,0,0,0,0,0
1565457154718.75,25,-59,1,0,0,0,0,0
1565457154750,25,-58,1,0,0,0,0,0
1565457154781.25,25,-58,1,0,0,0,0,0
1565457154812.5,25,-58,1,0,0,0,0,0
1565457154843.75,25,-58,1,0,0,0,0,0
1565457154875,25,-58,1,0,0,0,0,0
1565457154906.25,25,-58,1,0,0,0,0,0
1565457154937.5,25,-58,0,0,0,0,0,0
1565457154968.75,26,-58,0,0,0,0,0,0
1565457155000,26,-58,0,0,0,0,0,0
1565457155031.25,26,-57,1,0,0,0,0,0
1565457155062.5,26,-58,1,0,0,0,0,0
1565457155093.75,25,-58,1,0,0,0,0,0
1565457155125,25,-58,1,0,0,0,0,0
1565457155156.25,26,-58,1,0,0,0,0,0
1565457155187.5,25,-59,1,0,0,0,0,0
1565457155218.75,25,-58,1,0,0,0,0,0
1565457155250,25,-58,1,0,0,0,0,0
1565457155281.25,25,-58,1,0,0,0,0,0
1565457155312.5,25,-58,0,0,0,0,0,0
1565457155343.75,25,-58,0,0,0,0,0,0
1565457155375,25,-58,0,0,0,0,0,0
1565457155406.25,25,-58,1,0,0,0,0,0
1565457155437.5,26,-58,1,0,0,0,0,0
1565457155468.75,25,-58,0,0,0,0,0,0
1565457155500,26,-58,0,0,0,0,0,0
1565457155531.25,27,-59,1,0,0,0,0,0
1565457155562.5,26,-58,0,0,0,0,0,0
1565457155593.75,27,-58,0,0,0,0,0,0
1565457155625,28,-58,0,0,0,0,0,0
1565457155656.25,29,-58,0,0,0,0,0,0
1565457155687.5,28,-58,0,0,0,0,0,0
1565457155718.75,32,-57,-3,0,0,0,0,0
1565457155750,34,-57,-3,0,0,0,0,0
1565457155781.25,38,-61,-1,0,0,0,0,0
1565457155812.5,38,-59,-7,0,0,0,0,0
1565457155843.75,40,-50,-12,0,0,0,0,0
1565457155875,46,-51,-7,0,0,0,0,0
1565457155906.25,41,-52,-5,0,0,0,0,0
1565457155937.5,36,-46,-6,0,0,0,0,0
1565457155968.75,47,-44,13,0,0,0,0,0
1565457156000,39,-38,2,0,0,0,0,0
1565457156031.25,41,-37,-3,0,0,0,0,0
1565457156062.5,47,-37,2,0,0,0,0,0
1565457156093.75,51,-38,16,0,0,0,0,0
1565457156125,48,-38,6,0,0,0,0,0
1565457156156.25,54,-41,8,0,0,0,0,0
1565457156187.5,65,-48,27,0,0,0,0,0
1565457156218.75,52,-46,23,0,0,0,0,0
1565457156250,53,-28,30,0,0,0,0,0
1565457156281.25,53,-24,38,0,0,0,0,0
1565457156312.5,52,-12,47,0,0,0,0,0
1565457156343.75,41,-6,34,0,0,0,0,0
1565457156375,33,-5,41,0,0,0,0,0
1565457156406.25,33,-8,48,0,0,0,0,0
1565457156437.5,43,-9,41,0,0,0,0,0
1565457156468.75,38,-16,34,0,0,0,0,0
1565457156500,43,-20,34,0,0,0,0,0
1565457156531.25,48,-21,27,0,0,0,0,0
1565457156562.5,35,-24,21,0,0,0,0,0
1565457156593.75,45,-16,19,0,0,0,0,0
1565457156625,49,-14,19,0,0,0,0,0
1565457156656.25,45,-7,15,0,0,0,0,0
1565457156687.5,43,-1,14,0,0,0,0,0
1565457156718.75,25,11,31,0,0,0,0,0
1565457156750,21,22,40,0,0,0,0,0
1565457156781.25,19,40,17,0,0,0,0,0
1565457156812.5,17,37,2,0,0,0,0,0
1565457156843.75,23,3,5,0,0,0,0,0
1565457156875,70,-8,26,0,0,0,0,0
1565457156906.25,51,-17,8,0,0,0,0,0
1565457156937.5,38,-23,-1,0,0,0,0,0
1565457156968.75,46,-46,-10,0,0,0,0,0
1565457157000,41,-64,27,0,0,0,0,0
1565457157031.25,24,-73,8,0,0,0,0,0
1565457157062.5,2,-66,-1,0,0,0,0,0
1565457157093.75,12,-72,16,0,0,0,0,0
1565457157125,20,-78,8,0,0,0,0,0
1565457157156.25,26,-75,12,0,0,0,0,0
1565457157187.5,20,-104,11,0,0,0,0,0
1565457157218.75,16,-103,6,0,0,0,0,0
1565457157250,19,-85,5,0,0,0,0,0
1565457157281.25,16,-86,5,0,0,0,0,0
1565457157312.5,23,-84,16,0,0,0,0,0
1565457157343.75,25,-82,22,0,0,0,0,0
1565457157375,-1,-102,17,0,0,0,0,0
1565457157406.25,-35,-113,14,0,0,0,0,0
1565457157437.5,-4,-118,20,0,0,0,0,0
1565457157468.75,10,-112,11,0,0,0,0,0
1565457157500,37,-99,28,0,0,0,0,0
1565457157531.25,48,-85,12,0,0,0,0,0
1565457157562.5,32,-91,0,0,0,0,0,0
1565457157593.75,37,-78,10,0,0,0,0,0
1565457157625,38,-64,0,0,0,0,0,0
1565457157656.25,42,-48,-15,0,0,0,0,0
1565457157687.5,51,-50,-10,0,0,0,0,0
1565457157718.75,56,-68,-1,0,0,0,0,0
1565457157750,54,-64,2,0,0,0,0,0
1565457157781.25,41,-49,-10,0,0,0,0,0
1565457157812.5,41,-51,-16,0,0,0,0,0
1565457157843.75,54,-47,-2,0,0,0,0,0
1565457157875,52,-44,5,0,0,0,0,0
1565457157906.25,44,-34,0,0,0,0,0,0
1565457157937.5,43,-25,9,0,0,0,0,0
1565457157968.75,44,-24,9,0,0,0,0,0
1565457158000,29,-11,6,0,0,0,0,0
1565457158031.25,30,-9,5,0,0,0,0,0
1565457158062.5,27,1,7,0,0,0,0,0
1565457158093.75,24,6,2,0,0,0,0,0
1565457158125,9,3,24,0,0,0,0,0
1565457158156.25,-12,5,23,0,0,0,0,0
1565457158187.5,69,-15,58,0,0,0,0,0
1565457158218.75,117,-16,38,0,0,0,0,0
1565457158250,50,-23,29,0,0,0,0,0
1565457158281.25,48,-28,34,0,0,0,0,0
1565457158312.5,30,-18,22,0,0,0,0,0
1565457158343.75,27,-2,20,0,0,0,0,0
1565457158375,50,0,37,0,0,0,0,0
1565457158406.25,99,2,44,0,0,0,0,0
1565457158437.5,92,8,31,0,0,0,0,0
1565457158468.75,51,14,5,0,0,0,0,0
1565457158500,46,11,7,0,0,0,0,0
1565457158531.25,44,3,13,0,0,0,0,0
1565457158562.5,59,8,25,0,0,0,0,0
1565457158593.75,62,12,31,0,0,0,0,0
1565457158625,54,13,16,0,0,0,0,0
1565457158656.25,61,25,41,0,0,0,0,0
1565457158687.5,41,19,64,0,0,0,0,0
1565457158718.75,29,1,56,0,0,0,0,0
1565457158750,26,5,22,0,0,0,0,0
1565457158781.25,26,2,26,0,0,0,0,0
1565457158812.5,36,11,38,0,0,0,0,0
1565457158843.75,29,18,34,0,0,0,0,0
1565457158875,15,24,28,0,0,0,0,0
1565457158906.25,19,27,28,0,0,0,0,0
1565457158937.5,73,38,47,0,0,0,0,0
1565457158968.75,82,42,42,0,0,0,0,0
1565457159000,53,44,32,0,0,0,0,0
1565457159031.25,47,34,47,0,0,0,0,0
1565457159062.5,46,24,54,0,0,0,0,0
1565457159093.75,44,19,49,0,0,0,0,0
1565457159125,31,18,39,0,0,0,0,0
1565457159156.25,36,21,35,0,0,0,0,0
1565457159187.5,31,19,38,0,0,0,0,0
1565457159218.75,49,24,45,0,0,0,0,0
1565457159250,57,17,46,0,0,0,0,0
1565457159281.25,53,7,44,0,0,0,0,0
1565457159312.5,49,6,43,0,0,0,0,0
1565457159343.75,44,9,36,0,0,0,0,0
1565457159375,43,10,32,0,0,0,0,0
1565457159406.25,49,8,38,0,0,0,0,0
1565457159437.5,50,9,37,0,0,0,0,0
1565457159468.75,60,8,34,0,0,0,0,0
1565457159500,59,7,37,0,0,0,0,0
1565457159531.25,51,5,40,0,0,0,0,0
1565457159562.5,45,5,38,0,0,0,0,0
1565457159593.75,47,10,30,0,0,0,0,0
1565457159625,58,9,41,0,0,0,0,0
1565457159656.25,52,9,41,0,0,0,0,0
1565457159687.5,42,11,35,0,0,0,0,0
1565457159718.75,47,10,39,0,0,0,0,0
1565457159750,50,11,43,0,0,0,0,0
1565457159781.25,48,12,42,0,0,0,0,0
1565457159812.5,48,13,42,0,0,0,0,0
1565457159843.75,49,14,46,0,0,0,0,0
1565457159875,47,17,47,0,0,0,0,0
1565457159906.25,44,16,45,0,0,0,0,0
1565457159937.5,45,11,48,0,0,0,0,0
1565457159968.75,48,9,47,0,0,0,0,0
1565457160000,52,9,46,0,0,0,0,0
1565457160031.25,43,8,37,0,0,0,0,0
1565457160062.5,41,9,32,0,0,0,0,0
1565457160093.75,51,11,37,0,0,0,0,0
1565457160125,46,14,35,0,0,0,0,0
1565457160156.25,42,17,33,0,0,0,0,0
1565457160187.5,54,17,37,0,0,0,0,0
1565457160218.75,55,25,31,0,0,0,0,0
1565457160250,38,23,23,0,0,0,0,0
1565457160281.25,21,26,-6,0,0,0,0,0
1565457160312.5,41,16,19,0,0,0,0,0
1565457160343.75,37,8,69,0,0,0,0,0
1565457160375,-8,6,40,0,0,0,0,0
1565457160406.25,86,21,50,0,0,0,0,0
1565457160437.5,102,16,65,0,0,0,0,0
1565457160468.75,78,5,36,0,0,0,0,0
1565457160500,56,6,35,0,0,0,0,0
1565457160531.25,52,8,32,0,0,0,0,0
1565457160562.5,36,9,32,0,0,0,0,0
1565457160593.75,31,7,37,0,0,0,0,0
1565457160625,39,4,33,0,0,0,0,0
1565457160656.25,49,3,35,0,0,0,0,0
1565457160687.5,65,6,40,0,0,0,0,0
1565457160718.75,57,7,40,0,0,0,0,0
1565457160750,40,4,42,0,0,0,0,0
1565457160781.25,39,5,44,0,0,0,0,0
1565457160812.5,41,8,48,0,0,0,0,0
1565457160843.75,33,6,44,0,0,0,0,0
1565457160875,39,1,44,0,0,0,0,0
1565457160906.25,43,-3,44,0,0,0,0,0
1565457160937.5,45,-5,44,0,0,0,0,0
1565457160968.75,54,-11,47,0,0,0,0,0
1565457161000,50,-11,49,0,0,0,0,0
1565457161031.25,49,-1,54,0,0,0,0,0
1565457161062.5,48,-1,54,0,0,0,0,0
1565457161093.75,42,3,42,0,0,0,0,0
1565457161125,43,-3,44,0,0,0,0,0
1565457161156.25,43,-14,50,0,0,0,0,0
1565457161187.5,42,-11,42,0,0,0,0,0
1565457161218.75,46,-8,43,0,0,0,0,0
1565457161250,44,-6,41,0,0,0,0,0
1565457161281.25,45,-10,48,0,0,0,0,0
1565457161312.5,41,-11,46,0,0,0,0,0
1565457161343.75,41,-8,42,0,0,0,0,0
1565457161375,49,-11,48,0,0,0,0,0
1565457161406.25,42,-10,43,0,0,0,0,0
1565457161437.5,45,-7,44,0,0,0,0,0
1565457161468.75,40,-8,45,0,0,0,0,0
1565457161500,40,-15,48,0,0,0,0,0
1565457161531.25,43,-14,47,0,0,0,0,0
1565457161562.5,56,-21,52,0,0,0,0,0
1565457161593.75,57,-26,54,0,0,0,0,0
1565457161625,38,-17,46,0,0,0,0,0
1565457161656.25,37,-10,44,0,0,0,0,0
1565457161687.5,51,-7,44,0,0,0,0,0
1565457161718.75,51,-9,46,0,0,0,0,0
1565457161750,46,-11,45,0,0,0,0,0
1565457161781.25,40,-15,39,0,0,0,0,0
1565457161812.5,35,-15,37,0,0,0,0,0
1565457161843.75,39,-17,39,0,0,0,0,0
1565457161875,44,-18,38,0,0,0,0,0
1565457161906.25,48,-22,33,0,0,0,0,0
1565457161937.5,49,-22,29,0,0,0,0,0
1565457161968.75,48,-20,28,0,0,0,0,0
1565457162000,47,-18,25,0,0,0,0,0
1565457162031.25,38,-15,16,0,0,0,0,0
1565457162062.5,56,-14,29,0,0,0,0,0
1565457162093.75,43,-16,38,0,0,0,0,0
1565457162125,49,-10,42,0,0,0,0,0
1565457162156.25,60,-6,47,0,0,0,0,0
1565457162187.5,60,-8,45,0,0,0,0,0
1565457162218.75,53,-19,65,0,0,0,0,0
1565457162250,40,-21,55,0,0,0,0,0
1565457162281.25,40,-18,44,0,0,0,0,0
1565457162312.5,59,-18,35,0,0,0,0,0
1565457162343.75,60,-22,35,0,0,0,0,0
1565457162375,41,-21,18,0,0,0,0,0
1565457162406.25,42,-22,19,0,0,0,0,0
1565457162437.5,55,-18,30,0,0,0,0,0
1565457162468.75,59,-12,30,0,0,0,0,0
1565457162500,74,-6,25,0,0,0,0,0
1565457162531.25,54,-3,15,0,0,0,0,0
1565457162562.5,63,4,4,0,0,0,0,0
1565457162593.75,71,9,9,0,0,0,0,0
1565457162625,59,14,0,0,0,0,0,0
1565457162656.25,49,12,-10,0,0,0,0,0
1565457162687.5,48,6,-4,0,0,0,0,0
1565457162718.75,46,-4,-1,0,0,0,0,0
1565457162750,49,-11,16,0,0,0,0,0
1565457162781.25,62,-10,20,0,0,0,0,0
1565457162812.5,62,-9,6,0,0,0,0,0
1565457162843.75,69,-4,-16,0,0,0,0,0
1565457162875,69,-3,-12,0,0,0,0,0
1565457162906.25,90,-10,-2,0,0,0,0,0
1565457162937.5,98,-13,1,0,0,0,0,0
1565457162968.75,77,-13,7,0,0,0,0,0
1565457163000,31,-6,-7,0,0,0,0,0
1565457163031.25,33,-4,-9,0,0,0,0,0
1565457163062.5,46,-2,-15,0,0,0,0,0
1565457163093.75,80,-10,-14,0,0,0,0,0
1565457163125,76,-16,-16,0,0,0,0,0
1565457163156.25,60,-14,-15,0,0,0,0,0
1565457163187.5,41,-9,-18,0,0,0,0,0
1565457163218.75,42,-9,-16,0,0,0,0,0
1565457163250,62,-7,-3,0,0,0,0,0
1565457163281.25,65,-7,0,0,0,0,0,0
1565457163312.5,58,-6,-2,0,0,0,0,0
1565457163343.75,56,-3,-8,0,0,0,0,0
1565457163375,69,-10,-2,0,0,0,0,0
1565457163406.25,74,-13,2,0,0,0,0,0
1565457163437.5,66,-8,-6,0,0,0,0,0
1565457163468.75,60,-4,-11,0,0,0,0,0
1565457163500,64,6,21,0,0,0,0,0
1565457163531.25,67,9,26,0,0,0,0,0
1565457163562.5,53,9,19,0,0,0,0,0
1565457163593.75,50,6,15,0,0,0,0,0
1565457163625,52,4,15,0,0,0,0,0
1565457163656.25,65,6,10,0,0,0,0,0
1565457163687.5,64,8,7,0,0,0,0,0
1565457163718.75,58,9,12,0,0,0,0,0
1565457163750,47,9,14,0,0,0,0,0
1565457163781.25,44,11,12,0,0,0,0,0
1565457163812.5,49,11,17,0,0,0,0,0
1565457163843.75,63,11,26,0,0,0,0,0
1565457163875,69,11,26,0,0,0,0,0
1565457163906.25,60,13,17,0,0,0,0,0
1565457163937.5,56,14,17,0,0,0,0,0
1565457163968.75,54,13,16,0,0,0,0,0
1565457164000,59,12,22,0,0,0,0,0
1565457164031.25,55,11,27,0,0,0,0,0
1565457164062.5,54,11,29,0,0,0,0,0
1565457164093.75,59,12,27,0,0,0,0,0
1565457164125,59,11,23,0,0,0,0,0
1565457164156.25,59,8,22,0,0,0,0,0
1565457164187.5,59,7,22,0,0,0,0,0
1565457164218.75,55,7,20,0,0,0,0,0
1565457164250,55,8,21,0,0,0,0,0
1565457164281.25,57,10,21,0,0,0,0,0
1565457164312.5,57,11,22,0,0,0,0,0
1565457164343.75,60,12,22,0,0,0,0,0
1565457164375,57,13,21,0,0,0,0,0
1565457164406.25,56,13,21,0,0,0,0,0
1565457164437.5,59,13,21,0,0,0,0,0
1565457164468.75,57,13,21,0,0,0,0,0
1565457164500,58,11,21,0,0,0,0,0
1565457164531.25,58,11,19,0,0,0,0,0
1565457164562.5,58,10,19,0,0,0,0,0
1565457164593.75,57,7,17,0,0,0,0,0
1565457164625,55,7,17,0,0,0,0,0
1565457164656.25,51,2,21,0,0,0,0,0
1565457164687.5,54,1,24,0,0,0,0,0
1565457164718.75,56,0,27,0,0,0,0,0
1565457164750,57,-1,29,0,0,0,0,0
1565457164781.25,56,4,26,0,0,0,0,0
1565457164812.5,53,9,23,0,0,0,0,0
1565457164843.75,56,14,19,0,0,0,0,0
1565457164875,66,16,23,0,0,0,0,0
1565457164906.25,65,16,25,0,0,0,0,0
1565457164937.5,59,13,23,0,0,0,0,0
1565457164968.75,57,10,23,0,0,0,0,0
1565457165000,55,6,22,0,0,0,0,0
1565457165031.25,58,4,21,0,0,0,0,0
1565457165062.5,67,4,17,0,0,0,0,0
1565457165093.75,71,6,7,0,0,0,0,0
1565457165125,55,15,-9,0,0,0,0,0
1565457165156.25,48,19,-11,0,0,0,0,0
1565457165187.5,69,24,-8,0,0,0,0,0
1565457165218.75,75,26,-11,0,0,0,0,0
1565457165250,77,20,-4,0,0,0,0,0
1565457165281.25,60,10,-6,0,0,0,0,0
1565457165312.5,52,6,-7,0,0,0,0,0
1565457165343.75,49,4,-2,0,0,0,0,0
1565457165375,51,7,-4,0,0,0,0,0
1565457165406.25,60,11,-4,0,0,0,0,0
1565457165437.5,65,12,-1,0,0,0,0,0
1565457165468.75,67,11,4,0,0,0,0,0
1565457165500,60,8,4,0,0,0,0,0
1565457165531.25,62,5,9,0,0,0,0,0
1565457165562.5,61,3,7,0,0,0,0,0
1565457165593.75,58,5,4,0,0,0,0,0
1565457165625,59,7,2,0,0,0,0,0
1565457165656.25,65,4,1,0,0,0,0,0
1565457165687.5,65,1,4,0,0,0,0,0
1565457165718.75,49,2,12,0,0,0,0,0
1565457165750,53,10,19,0,0,0,0,0
1565457165781.25,60,12,20,0,0,0,0,0
1565457165812.5,67,17,16,0,0,0,0,0
1565457165843.75,62,19,14,0,0,0,0,0
1565457165875,57,19,8,0,0,0,0,0
1565457165906.25,61,17,12,0,0,0,0,0
1565457165937.5,59,12,16,0,0,0,0,0
1565457165968.75,55,9,13,0,0,0,0,0
1565457166000,58,1,14,0,0,0,0,0
1565457166031.25,60,-1,16,0,0,0,0,0
1565457166062.5,60,-1,18,0,0,0,0,0
1565457166093.75,59,-1,19,0,0,0,0,0
1565457166125,58,6,19,0,0,0,0,0
1565457166156.25,70,14,9,0,0,0,0,0
1565457166187.5,74,11,2,0,0,0,0,0
1565457166218.75,62,8,-3,0,0,0,0,0
1565457166250,52,8,-1,0,0,0,0,0
1565457166281.25,54,13,-3,0,0,0,0,0
1565457166312.5,64,16,-4,0,0,0,0,0
1565457166343.75,69,18,-5,0,0,0,0,0
1565457166375,63,16,-5,0,0,0,0,0
1565457166406.25,54,11,-6,0,0,0,0,0
1565457166437.5,55,10,-4,0,0,0,0,0
1565457166468.75,61,12,1,0,0,0,0,0
1565457166500,61,12,1,0,0,0,0,0
1565457166531.25,59,12,-2,0,0,0,0,0
1565457166562.5,62,13,-1,0,0,0,0,0
1565457166593.75,63,13,-2,0,0,0,0,0
1565457166625,61,13,-2,0,0,0,0,0
1565457166656.25,62,12,-2,0,0,0,0,0
1565457166687.5,61,9,-2,0,0,0,0,0
1565457166718.75,59,8,-2,0,0,0,0,0
1565457166750,59,9,-2,0,0,0,0,0
1565457166781.25,60,9,-3,0,0,0,0,0
1565457166812.5,56,14,-4,0,0,0,0,0
1565457166843.75,55,16,-5,0,0,0,0,0
1565457166875,53,19,-6,0,0,0,0,0
1565457166906.25,53,20,-6,0,0,0,0,0
1565457166937.5,57,21,-2,0,0,0,0,0
1565457166968.75,58,19,-4,0,0,0,0,0
1565457167000,71,13,1,0,0,0,0,0
1565457167031.25,74,10,5,0,0,0,0,0
1565457167062.5,62,10,3,0,0,0,0,0
1565457167093.75,56,10,-1,0,0,0,0,0
1565457167125,61,8,2,0,0,0,0,0
1565457167156.25,60,4,2,0,0,0,0,0
1565457167187.5,62,3,4,0,0,0,0,0
1565457167218.75,68,6,15,0,0,0,0,0
1565457167250,64,8,13,0,0,0,0,0
1565457167281.25,56,13,7,0,0,0,0,0
1565457167312.5,55,14,6,0,0,0,0,0
1565457167343.75,53,13,6,0,0,0,0,0
1565457167375,51,13,6,0,0,0,0,0
1565457167406.25,56,13,5,0,0,0,0,0
1565457167437.5,61,9,2,0,0,0,0,0
1565457167468.75,57,8,2,0,0,0,0,0
1565457167500,53,10,0,0,0,0,0,0
1565457167531.25,56,12,0,0,0,0,0,0
1565457167562.5,74,18,-4,0,0,0,0,0
1565457167593.75,93,4,-9,0,0,0,0,0
1565457167625,76,5,-8,0,0,0,0,0
1565457167656.25,60,1,-11,0,0,0,0,0
1565457167687.5,48,7,-22,0,0,0,0,0
1565457167718.75,56,10,-25,0,0,0,0,0
1565457167750,70,2,-23,0,0,0,0,0
1565457167781.25,64,-1,-17,0,0,0,0,0
1565457167812.5,46,-4,-15,0,0,0,0,0
1565457167843.75,51,-2,-15,0,0,0,0,0
1565457167875,63,5,-5,0,0,0,0,0
1565457167906.25,55,10,-9,0,0,0,0,0
1565457167937.5,56,9,-13,0,0,0,0,0
1565457167968.75,74,6,-1,0,0,0,0,0
1565457168000,76,7,2,0,0,0,0,0
1565457168031.25,55,4,1,0,0,0,0,0
1565457168062.5,49,7,4,0,0,0,0,0
1565457168093.75,47,13,1,0,0,0,0,0
1565457168125,51,17,2,0,0,0,0,0
1565457168156.25,54,22,4,0,0,0,0,0
1565457168187.5,58,20,7,0,0,0,0,0
1565457168218.75,59,18,7,0,0,0,0,0
1565457168250,58,20,4,0,0,0,0,0
1565457168281.25,55,28,1,0,0,0,0,0
1565457168312.5,63,34,-1,0,0,0,0,0
1565457168343.75,68,35,0,0,0,0,0,0
1565457168375,61,30,2,0,0,0,0,0
1565457168406.25,54,23,2,0,0,0,0,0
1565457168437.5,56,14,3,0,0,0,0,0
1565457168468.75,62,11,8,0,0,0,0,0
1565457168500,79,5,8,0,0,0,0,0
1565457168531.25,79,3,11,0,0,0,0,0
1565457168562.5,55,0,10,0,0,0,0,0
1565457168593.75,49,2,8,0,0,0,0,0
1565457168625,73,6,13,0,0,0,0,0
1565457168656.25,79,8,17,0,0,0,0,0
1565457168687.5,51,13,10,0,0,0,0,0
1565457168718.75,39,13,7,0,0,0,0,0
1565457168750,46,12,9,0,0,0,0,0
1565457168781.25,52,12,9,0,0,0,0,0
1565457168812.5,52,12,11,0,0,0,0,0
1565457168843.75,53,4,16,0,0,0,0,0
1565457168875,55,2,15,0,0,0,0,0
1565457168906.25,51,-1,16,0,0,0,0,0
1565457168937.5,48,3,18,0,0,0,0,0
1565457168968.75,57,16,24,0,0,0,0,0
1565457169000,65,17,18,0,0,0,0,0
1565457169031.25,105,4,-12,0,0,0,0,0
1565457169062.5,106,1,-15,0,0,0,0,0
1565457169093.75,72,0,-32,0,0,0,0,0
1565457169125,74,1,-27,0,0,0,0,0
1565457169156.25,81,4,-7,0,0,0,0,0
1565457169187.5,57,7,2,0,0,0,0,0
1565457169218.75,44,7,3,0,0,0,0,0
1565457169250,29,11,-2,0,0,0,0,0
1565457169281.25,31,14,-3,0,0,0,0,0
1565457169312.5,41,14,2,0,0,0,0,0
1565457169343.75,47,11,3,0,0,0,0,0
1565457169375,49,2,0,0,0,0,0,0
1565457169406.25,53,-1,-3,0,0,0,0,0
1565457169437.5,68,-4,0,0,0,0,0,0
1565457169468.75,64,-2,-1,0,0,0,0,0
1565457169500,71,9,2,0,0,0,0,0
1565457169531.25,85,9,7,0,0,0,0,0
1565457169562.5,87,-1,23,0,0,0,0,0
1565457169593.75,77,-1,19,0,0,0,0,0
1565457169625,61,-6,7,0,0,0,0,0
1565457169656.25,69,-2,2,0,0,0,0,0
1565457169687.5,49,0,0,0,0,0,0,0
1565457169718.75,29,10,-4,0,0,0,0,0
1565457169750,39,15,0,0,0,0,0,0
1565457169781.25,54,19,7,0,0,0,0,0
1565457169812.5,55,20,6,0,0,0,0,0
1565457169843.75,53,16,3,0,0,0,0,0
1565457169875,53,14,3,0,0,0,0,0
1565457169906.25,61,14,16,0,0,0,0,0
1565457169937.5,64,15,18,0,0,0,0,0
1565457169968.75,62,19,8,0,0,0,0,0
1565457170000,86,23,-8,0,0,0,0,0
1565457170031.25,96,21,-12,0,0,0,0,0
1565457170062.5,89,10,-16,0,0,0,0,0
1565457170093.75,79,6,-19,0,0,0,0,0
1565457170125,68,3,-16,0,0,0,0,0
1565457170156.25,62,2,-9,0,0,0,0,0
1565457170187.5,51,9,3,0,0,0,0,0
1565457170218.75,47,10,7,0,0,0,0,0
1565457170250,35,13,10,0,0,0,0,0
1565457170281.25,42,12,15,0,0,0,0,0
1565457170312.5,50,11,11,0,0,0,0,0
1565457170343.75,53,9,5,0,0,0,0,0
1565457170375,54,5,0,0,0,0,0,0
1565457170406.25,55,3,-2,0,0,0,0,0
1565457170437.5,50,-2,-3,0,0,0,0,0
1565457170468.75,63,5,-3,0,0,0,0,0
1565457170500,112,7,-1,0,0,0,0,0
1565457170531.25,97,2,15,0,0,0,0,0
1565457170562.5,75,-5,17,0,0,0,0,0
1565457170593.75,46,-7,18,0,0,0,0,0
1565457170625,45,-3,12,0,0,0,0,0
1565457170656.25,39,9,6,0,0,0,0,0
1565457170687.5,40,13,5,0,0,0,0,0
1565457170718.75,41,16,1,0,0,0,0,0
1565457170750,38,16,0,0,0,0,0,0
1565457170781.25,47,16,3,0,0,0,0,0
1565457170812.5,52,17,2,0,0,0,0,0
1565457170843.75,64,16,5,0,0,0,0,0
1565457170875,64,17,9,0,0,0,0,0
1565457170906.25,74,17,10,0,0,0,0,0
1565457170937.5,84,18,5,0,0,0,0,0
1565457170968.75,91,5,-3,0,0,0,0,0
1565457171000,57,10,-6,0,0,0,0,0
1565457171031.25,61,16,-9,0,0,0,0,0
1565457171062.5,69,23,-9,0,0,0,0,0
1565457171093.75,64,24,-6,0,0,0,0,0
1565457171125,52,15,-4,0,0,0,0,0
1565457171156.25,48,15,4,0,0,0,0,0
1565457171187.5,43,5,8,0,0,0,0,0
1565457171218.75,42,2,4,0,0,0,0,0
1565457171250,52,4,5,0,0,0,0,0
1565457171281.25,57,5,8,0,0,0,0,0
1565457171312.5,57,6,6,0,0,0,0,0
1565457171343.75,61,6,7,0,0,0,0,0
1565457171375,72,0,13,0,0,0,0,0
1565457171406.25,77,11,12,0,0,0,0,0
1565457171437.5,86,7,10,0,0,0,0,0
1565457171468.75,71,2,11,0,0,0,0,0
1565457171500,58,-3,18,0,0,0,0,0
1565457171531.25,50,-2,25,0,0,0,0,0
1565457171562.5,49,3,15,0,0,0,0,0
1565457171593.75,42,14,14,0,0,0,0,0
1565457171625,41,17,14,0,0,0,0,0
1565457171656.25,42,23,8,0,0,0,0,0
1565457171687.5,43,25,6,0,0,0,0,0
1565457171718.75,48,27,8,0,0,0,0,0
1565457171750,56,24,9,0,0,0,0,0
1565457171781.25,61,17,10,0,0,0,0,0
1565457171812.5,61,15,14,0,0,0,0,0
1565457171843.75,66,15,20,0,0,0,0,0
1565457171875,86,16,19,0,0,0,0,0
1565457171906.25,97,14,5,0,0,0,0,0
1565457171937.5,76,10,-6,0,0,0,0,0
1565457171968.75,62,11,-9,0,0,0,0,0
1565457172000,61,20,-18,0,0,0,0,0
1565457172031.25,65,18,-9,0,0,0,0,0
1565457172062.5,55,12,5,0,0,0,0,0
1565457172093.75,52,10,8,0,0,0,0,0
1565457172125,48,10,5,0,0,0,0,0
1565457172156.25,46,11,7,0,0,0,0,0
1565457172187.5,47,17,7,0,0,0,0,0
1565457172218.75,49,18,3,0,0,0,0,0
1565457172250,52,15,3,0,0,0,0,0
1565457172281.25,63,12,2,0,0,0,0,0
1565457172312.5,63,10,0,0,0,0,0,0
1565457172343.75,47,3,-4,0,0,0,0,0
1565457172375,49,8,-1,0,0,0,0,0
1565457172406.25,86,15,25,0,0,0,0,0
1565457172437.5,100,8,18,0,0,0,0,0
1565457172468.75,89,-6,6,0,0,0,0,0
1565457172500,75,-10,7,0,0,0,0,0
1565457172531.25,43,-1,-6,0,0,0,0,0
1565457172562.5,42,4,-8,0,0,0,0,0
1565457172593.75,54,18,-4,0,0,0,0,0
1565457172625,56,22,0,0,0,0,0,0
1565457172656.25,48,22,0,0,0,0,0,0
1565457172687.5,53,16,5,0,0,0,0,0
1565457172718.75,50,10,6,0,0,0,0,0
1565457172750,46,9,2,0,0,0,0,0
1565457172781.25,50,13,-2,0,0,0,0,0
1565457172812.5,66,23,2,0,0,0,0,0
1565457172843.75,75,26,6,0,0,0,0,0
1565457172875,88,25,-11,0,0,0,0,0
1565457172906.25,84,18,-12,0,0,0,0,0
1565457172937.5,62,17,-16,0,0,0,0,0
1565457172968.75,60,17,-24,0,0,0,0,0
1565457173000,68,17,-23,0,0,0,0,0
1565457173031.25,66,13,-15,0,0,0,0,0
1565457173062.5,45,10,-5,0,0,0,0,0
1565457173093.75,37,9,-1,0,0,0,0,0
1565457173125,35,14,1,0,0,0,0,0
1565457173156.25,43,19,-2,0,0,0,0,0
1565457173187.5,53,17,0,0,0,0,0,0
1565457173218.75,73,9,-2,0,0,0,0,0
1565457173250,74,7,-4,0,0,0,0,0
1565457173281.25,65,-1,-2,0,0,0,0,0
1565457173312.5,65,-1,-3,0,0,0,0,0
1565457173343.75,56,13,-1,0,0,0,0,0
1565457173375,69,19,-1,0,0,0,0,0
1565457173406.25,76,15,-8,0,0,0,0,0
1565457173437.5,67,9,-5,0,0,0,0,0
1565457173468.75,62,-1,5,0,0,0,0,0
1565457173500,56,-2,4,0,0,0,0,0
1565457173531.25,67,-3,2,0,0,0,0,0
1565457173562.5,60,4,9,0,0,0,0,0
1565457173593.75,50,6,6,0,0,0,0,0
1565457173625,49,11,1,0,0,0,0,0
1565457173656.25,53,14,0,0,0,0,0,0
1565457173687.5,55,16,-1,0,0,0,0,0
1565457173718.75,53,15,-2,0,0,0,0,0
1565457173750,55,15,-1,0,0,0,0,0
1565457173781.25,55,16,0,0,0,0,0,0
1565457173812.5,58,15,-1,0,0,0,0,0
1565457173843.75,61,15,-3,0,0,0,0,0
1565457173875,66,11,-10,0,0,0,0,0
1565457173906.25,67,10,-14,0,0,0,0,0
1565457173937.5,73,7,-19,0,0,0,0,0
1565457173968.75,78,9,-15,0,0,0,0,0
1565457174000,83,5,-16,0,0,0,0,0
1565457174031.25,71,1,-8,0,0,0,0,0
1565457174062.5,55,1,-6,0,0,0,0,0
1565457174093.75,43,13,0,0,0,0,0,0
1565457174125,48,18,3,0,0,0,0,0
1565457174156.25,48,21,-3,0,0,0,0,0
1565457174187.5,42,18,-6,0,0,0,0,0
1565457174218.75,39,6,0,0,0,0,0,0
1565457174250,52,7,-4,0,0,0,0,0
1565457174281.25,76,8,-9,0,0,0,0,0
1565457174312.5,72,6,-10,0,0,0,0,0
1565457174343.75,60,6,-9,0,0,0,0,0
1565457174375,58,10,-7,0,0,0,0,0
1565457174406.25,79,19,26,0,0,0,0,0
1565457174437.5,75,4,9,0,0,0,0,0
1565457174468.75,66,3,-4,0,0,0,0,0
1565457174500,57,1,-11,0,0,0,0,0
1565457174531.25,62,0,-14,0,0,0,0,0
1565457174562.5,64,-2,-10,0,0,0,0,0
1565457174593.75,57,2,-1,0,0,0,0,0
1565457174625,50,15,5,0,0,0,0,0
1565457174656.25,54,20,4,0,0,0,0,0
1565457174687.5,61,21,5,0,0,0,0,0
1565457174718.75,52,19,6,0,0,0,0,0
1565457174750,40,17,2,0,0,0,0,0
1565457174781.25,49,18,4,0,0,0,0,0
1565457174812.5,60,20,12,0,0,0,0,0
1565457174843.75,56,20,11,0,0,0,0,0
1565457174875,63,21,10,0,0,0,0,0
1565457174906.25,95,17,-5,0,0,0,0,0
1565457174937.5,84,8,-11,0,0,0,0,0
1565457174968.75,52,10,-23,0,0,0,0,0
1565457175000,62,16,-24,0,0,0,0,0
1565457175031.25,74,17,-13,0,0,0,0,0
1565457175062.5,64,12,-4,0,0,0,0,0
1565457175093.75,44,8,12,0,0,0,0,0
1565457175125,41,10,9,0,0,0,0,0
1565457175156.25,50,16,1,0,0,0,0,0
1565457175187.5,58,13,4,0,0,0,0,0
1565457175218.75,56,4,3,0,0,0,0,0
1565457175250,55,2,2,0,0,0,0,0
1565457175281.25,65,4,0,0,0,0,0,0
1565457175312.5,61,2,-2,0,0,0,0,0
1565457175343.75,57,4,1,0,0,0,0,0
1565457175375,70,15,-2,0,0,0,0,0
1565457175406.25,76,12,-5,0,0,0,0,0
1565457175437.5,70,8,10,0,0,0,0,0
1565457175468.75,62,3,13,0,0,0,0,0
1565457175500,64,6,8,0,0,0,0,0
1565457175531.25,69,9,6,0,0,0,0,0
1565457175562.5,59,14,4,0,0,0,0,0
1565457175593.75,52,17,2,0,0,0,0,0
1565457175625,51,22,3,0,0,0,0,0
1565457175656.25,56,24,6,0,0,0,0,0
1565457175687.5,52,20,8,0,0,0,0,0
1565457175718.75,50,17,7,0,0,0,0,0
1565457175750,52,16,8,0,0,0,0,0
1565457175781.25,51,15,6,0,0,0,0,0
1565457175812.5,49,15,6,0,0,0,0,0
1565457175843.75,57,16,5,0,0,0,0,0
1565457175875,61,14,6,0,0,0,0,0
1565457175906.25,70,15,5,0,0,0,0,0
1565457175937.5,74,16,3,0,0,0,0,0
1565457175968.75,74,13,0,0,0,0,0,0
1565457176000,72,15,-4,0,0,0,0,0
1565457176031.25,79,13,-9,0,0,0,0,0
1565457176062.5,78,13,-11,0,0,0,0,0
1565457176093.75,60,3,-6,0,0,0,0,0
1565457176125,52,4,0,0,0,0,0,0
1565457176156.25,46,9,9,0,0,0,0,0
1565457176187.5,43,15,7,0,0,0,0,0
1565457176218.75,44,20,6,0,0,0,0,0
1565457176250,60,21,8,0,0,0,0,0
1565457176281.25,65,18,7,0,0,0,0,0
1565457176312.5,52,11,4,0,0,0,0,0
1565457176343.75,57,9,5,0,0,0,0,0
1565457176375,68,7,3,0,0,0,0,0
1565457176406.25,61,6,1,0,0,0,0,0
1565457176437.5,61,9,3,0,0,0,0,0
1565457176468.75,75,11,2,0,0,0,0,0
1565457176500,87,4,2,0,0,0,0,0
1565457176531.25,76,0,5,0,0,0,0,0
1565457176562.5,63,2,1,0,0,0,0,0
1565457176593.75,63,1,-1,0,0,0,0,0
1565457176625,61,0,-1,0,0,0,0,0
1565457176656.25,48,3,2,0,0,0,0,0
1565457176687.5,47,8,3,0,0,0,0,0
1565457176718.75,52,13,9,0,0,0,0,0
1565457176750,54,13,10,0,0,0,0,0
1565457176781.25,49,12,8,0,0,0,0,0
1565457176812.5,50,12,9,0,0,0,0,0
1565457176843.75,52,14,9,0,0,0,0,0
1565457176875,55,15,9,0,0,0,0,0
1565457176906.25,65,16,12,0,0,0,0,0
1565457176937.5,65,15,10,0,0,0,0,0
1565457176968.75,64,16,0,0,0,0,0,0
1565457177000,100,14,-9,0,0,0,0,0
1565457177031.25,88,8,-13,0,0,0,0,0
1565457177062.5,58,5,-14,0,0,0,0,0
1565457177093.75,57,7,-15,0,0,0,0,0
1565457177125,66,14,-11,0,0,0,0,0
1565457177156.25,62,12,-8,0,0,0,0,0
1565457177187.5,51,9,0,0,0,0,0,0
1565457177218.75,48,9,3,0,0,0,0,0
1565457177250,45,9,2,0,0,0,0,0
1565457177281.25,47,11,1,0,0,0,0,0
1565457177312.5,49,10,1,0,0,0,0,0
1565457177343.75,51,9,2,0,0,0,0,0
1565457177375,55,10,1,0,0,0,0,0
1565457177406.25,59,11,-1,0,0,0,0,0
1565457177437.5,63,5,-3,0,0,0,0,0
1565457177468.75,56,8,-3,0,0,0,0,0
1565457177500,75,19,0,0,0,0,0,0
1565457177531.25,84,13,-4,0,0,0,0,0
1565457177562.5,82,9,3,0,0,0,0,0
1565457177593.75,68,-3,3,0,0,0,0,0
1565457177625,61,-5,-1,0,0,0,0,0
1565457177656.25,50,-2,-1,0,0,0,0,0
1565457177687.5,48,3,-2,0,0,0,0,0
1565457177718.75,48,13,-8,0,0,0,0,0
1565457177750,49,17,-9,0,0,0,0,0
1565457177781.25,55,20,-1,0,0,0,0,0
1565457177812.5,55,20,1,0,0,0,0,0
1565457177843.75,60,16,6,0,0,0,0,0
1565457177875,50,16,7,0,0,0,0,0
1565457177906.25,48,18,3,0,0,0,0,0
1565457177937.5,67,22,5,0,0,0,0,0
1565457177968.75,78,21,1,0,0,0,0,0
1565457178000,99,9,-7,0,0,0,0,0
1565457178031.25,82,1,-6,0,0,0,0,0
1565457178062.5,57,8,-7,0,0,0,0,0
1565457178093.75,57,10,-7,0,0,0,0,0
1565457178125,66,8,-5,0,0,0,0,0
1565457178156.25,62,8,0,0,0,0,0,0
1565457178187.5,49,7,4,0,0,0,0,0
1565457178218.75,45,6,6,0,0,0,0,0
1565457178250,47,7,11,0,0,0,0,0
1565457178281.25,52,9,13,0,0,0,0,0
1565457178312.5,52,12,13,0,0,0,0,0
1565457178343.75,54,13,13,0,0,0,0,0
1565457178375,57,12,14,0,0,0,0,0
1565457178406.25,63,11,13,0,0,0,0,0
1565457178437.5,59,9,13,0,0,0,0,0
1565457178468.75,56,12,18,0,0,0,0,0
1565457178500,69,14,22,0,0,0,0,0
1565457178531.25,79,7,22,0,0,0,0,0
1565457178562.5,77,6,26,0,0,0,0,0
1565457178593.75,58,0,25,0,0,0,0,0
1565457178625,54,-1,22,0,0,0,0,0
1565457178656.25,55,2,20,0,0,0,0,0
1565457178687.5,53,7,19,0,0,0,0,0
1565457178718.75,49,15,14,0,0,0,0,0
1565457178750,49,18,13,0,0,0,0,0
1565457178781.25,53,23,15,0,0,0,0,0
1565457178812.5,45,24,14,0,0,0,0,0
1565457178843.75,44,24,14,0,0,0,0,0
1565457178875,50,22,14,0,0,0,0,0
1565457178906.25,50,22,15,0,0,0,0,0
1565457178937.5,55,23,11,0,0,0,0,0
1565457178968.75,67,26,11,0,0,0,0,0
1565457179000,98,15,5,0,0,0,0,0
1565457179031.25,78,6,0,0,0,0,0,0
1565457179062.5,57,6,0,0,0,0,0,0
1565457179093.75,66,9,3,0,0,0,0,0
1565457179125,71,7,8,0,0,0,0,0
1565457179156.25,66,8,12,0,0,0,0,0
1565457179187.5,56,10,10,0,0,0,0,0
1565457179218.75,51,9,10,0,0,0,0,0
1565457179250,48,12,13,0,0,0,0,0
1565457179281.25,54,13,16,0,0,0,0,0
1565457179312.5,48,13,8,0,0,0,0,0
1565457179343.75,42,16,4,0,0,0,0,0
1565457179375,39,14,-3,0,0,0,0,0
1565457179406.25,68,6,1,0,0,0,0,0
1565457179437.5,69,2,3,0,0,0,0,0
1565457179468.75,59,-1,11,0,0,0,0,0
1565457179500,66,2,16,0,0,0,0,0
1565457179531.25,91,1,22,0,0,0,0,0
1565457179562.5,80,0,24,0,0,0,0,0
1565457179593.75,61,-5,21,0,0,0,0,0
1565457179625,54,-4,16,0,0,0,0,0
1565457179656.25,63,-4,20,0,0,0,0,0
1565457179687.5,58,2,18,0,0,0,0,0
1565457179718.75,51,4,15,0,0,0,0,0
1565457179750,50,8,16,0,0,0,0,0
1565457179781.25,45,9,13,0,0,0,0,0
1565457179812.5,50,12,18,0,0,0,0,0
1565457179843.75,52,14,18,0,0,0,0,0
1565457179875,50,16,20,0,0,0,0,0
1565457179906.25,46,18,15,0,0,0,0,0
1565457179937.5,63,22,18,0,0,0,0,0
1565457179968.75,73,23,18,0,0,0,0,0
1565457180000,68,22,6,0,0,0,0,0
1565457180031.25,64,22,2,0,0,0,0,0
1565457180062.5,78,20,-2,0,0,0,0,0
1565457180093.75,67,20,-3,0,0,0,0,0
1565457180125,58,25,0,0,0,0,0,0
1565457180156.25,56,32,0,0,0,0,0,0
1565457180187.5,58,33,0,0,0,0,0,0
1565457180218.75,57,30,-5,0,0,0,0,0
1565457180250,60,29,-10,0,0,0,0,0
1565457180281.25,58,20,-10,0,0,0,0,0
1565457180312.5,49,16,-13,0,0,0,0,0
1565457180343.75,42,17,-15,0,0,0,0,0
1565457180375,40,17,-13,0,0,0,0,0
1565457180406.25,43,20,-15,0,0,0,0,0
1565457180437.5,44,22,-20,0,0,0,0,0
1565457180468.75,49,22,-27,0,0,0,0,0
1565457180500,51,19,-28,0,0,0,0,0
1565457180531.25,50,19,-14,0,0,0,0,0
1565457180562.5,47,14,-23,0,0,0,0,0
1565457180593.75,47,13,-31,0,0,0,0,0
1565457180625,57,14,-24,0,0,0,0,0
1565457180656.25,59,15,-27,0,0,0,0,0
1565457180687.5,58,15,-32,0,0,0,0,0
1565457180718.75,56,15,-34,0,0,0,0,0
1565457180750,54,20,-31,0,0,0,0,0
1565457180781.25,51,23,-23,0,0,0,0,0
1565457180812.5,55,27,-21,0,0,0,0,0
1565457180843.75,50,28,-26,0,0,0,0,0
1565457180875,47,42,-28,0,0,0,0,0
1565457180906.25,51,45,-27,0,0,0,0,0
1565457180937.5,53,44,-22,0,0,0,0,0
1565457180968.75,48,41,-19,0,0,0,0,0
1565457181000,48,41,-26,0,0,0,0,0
1565457181031.25,50,36,-30,0,0,0,0,0
1565457181062.5,61,38,-31,0,0,0,0,0
1565457181093.75,85,17,-39,0,0,0,0,0
1565457181125,72,12,-33,0,0,0,0,0
1565457181156.25,64,19,-31,0,0,0,0,0
1565457181187.5,60,24,-34,0,0,0,0,0
1565457181218.75,50,23,-28,0,0,0,0,0
1565457181250,42,21,-25,0,0,0,0,0
1565457181281.25,34,26,-24,0,0,0,0,0
1565457181312.5,42,29,-20,0,0,0,0,0
1565457181343.75,39,32,-16,0,0,0,0,0
1565457181375,35,37,-18,0,0,0,0,0
1565457181406.25,34,42,-22,0,0,0,0,0
1565457181437.5,34,41,-19,0,0,0,0,0
1565457181468.75,35,41,-16,0,0,0,0,0
1565457181500,27,45,-16,0,0,0,0,0
1565457181531.25,25,42,-16,0,0,0,0,0
1565457181562.5,21,46,-18,0,0,0,0,0
1565457181593.75,28,53,-20,0,0,0,0,0
1565457181625,48,54,-29,0,0,0,0,0
1565457181656.25,42,47,-30,0,0,0,0,0
1565457181687.5,35,46,-28,0,0,0,0,0
1565457181718.75,37,48,-29,0,0,0,0,0
1565457181750,41,47,-34,0,0,0,0,0
1565457181781.25,34,46,-39,0,0,0,0,0
1565457181812.5,31,47,-29,0,0,0,0,0
1565457181843.75,24,49,-24,0,0,0,0,0
1565457181875,25,49,-23,0,0,0,0,0
1565457181906.25,26,49,-20,0,0,0,0,0
1565457181937.5,24,49,-20,0,0,0,0,0
1565457181968.75,23,49,-23,0,0,0,0,0
1565457182000,25,47,-25,0,0,0,0,0
1565457182031.25,25,46,-28,0,0,0,0,0
1565457182062.5,25,47,-28,0,0,0,0,0
1565457182093.75,26,53,-33,0,0,0,0,0
1565457182125,26,64,-43,0,0,0,0,0
1565457182156.25,37,54,-55,0,0,0,0,0
1565457182187.5,30,47,-40,0,0,0,0,0
1565457182218.75,14,46,-26,0,0,0,0,0
1565457182250,16,50,-32,0,0,0,0,0
1565457182281.25,24,55,-56,0,0,0,0,0
1565457182312.5,30,47,-50,0,0,0,0,0
1565457182343.75,29,43,-38,0,0,0,0,0
1565457182375,30,47,-31,0,0,0,0,0
1565457182406.25,32,52,-35,0,0,0,0,0
1565457182437.5,32,58,-31,0,0,0,0,0
1565457182468.75,33,60,-25,0,0,0,0,0
1565457182500,40,62,-11,0,0,0,0,0
1565457182531.25,37,55,-5,0,0,0,0,0
1565457182562.5,25,54,-5,0,0,0,0,0
1565457182593.75,21,56,-3,0,0,0,0,0
1565457182625,22,48,7,0,0,0,0,0
1565457182656.25,27,48,16,0,0,0,0,0
1565457182687.5,24,53,18,0,0,0,0,0
1565457182718.75,26,53,20,0,0,0,0,0
1565457182750,26,43,24,0,0,0,0,0
1565457182781.25,16,51,24,0,0,0,0,0
1565457182812.5,16,56,22,0,0,0,0,0
1565457182843.75,26,50,33,0,0,0,0,0
1565457182875,27,50,37,0,0,0,0,0
1565457182906.25,6,56,25,0,0,0,0,0
1565457182937.5,-3,57,20,0,0,0,0,0
1565457182968.75,-3,64,25,0,0,0,0,0
1565457183000,-4,64,27,0,0,0,0,0
1565457183031.25,-3,57,26,0,0,0,0,0
1565457183062.5,-7,55,29,0,0,0,0,0
1565457183093.75,-10,54,30,0,0,0,0,0
1565457183125,-3,60,32,0,0,0,0,0
1565457183156.25,-6,61,31,0,0,0,0,0
1565457183187.5,-6,59,30,0,0,0,0,0
1565457183218.75,0,60,32,0,0,0,0,0
1565457183250,8,66,37,0,0,0,0,0
1565457183281.25,1,61,36,0,0,0,0,0
1565457183312.5,-1,63,26,0,0,0,0,0
1565457183343.75,3,64,29,0,0,0,0,0
1565457183375,-6,61,30,0,0,0,0,0
1565457183406.25,-4,61,25,0,0,0,0,0
1565457183437.5,8,57,22,0,0,0,0,0
1565457183468.75,7,51,17,0,0,0,0,0
1565457183500,4,52,19,0,0,0,0,0
1565457183531.25,4,53,23,0,0,0,0,0
1565457183562.5,-1,55,21,0,0,0,0,0
1565457183593.75,4,63,23,0,0,0,0,0
1565457183625,5,69,23,0,0,0,0,0
1565457183656.25,-4,66,18,0,0,0,0,0
1565457183687.5,-5,69,19,0,0,0,0,0
1565457183718.75,-6,65,19,0,0,0,0,0
1565457183750,-5,61,24,0,0,0,0,0
1565457183781.25,1,56,30,0,0,0,0,0
1565457183812.5,1,58,28,0,0,0,0,0
1565457183843.75,-2,61,20,0,0,0,0,0
1565457183875,-5,61,19,0,0,0,0,0
1565457183906.25,-3,63,26,0,0,0,0,0
1565457183937.5,-2,63,27,0,0,0,0,0
1565457183968.75,-3,59,27,0,0,0,0,0
1565457184000,-5,58,29,0,0,0,0,0
1565457184031.25,-4,58,31,0,0,0,0,0
1565457184062.5,-5,55,29,0,0,0,0,0
1565457184093.75,-3,55,30,0,0,0,0,0
1565457184125,-3,57,26,0,0,0,0,0
1565457184156.25,-3,58,25,0,0,0,0,0
1565457184187.5,-4,57,29,0,0,0,0,0
1565457184218.75,-5,55,30,0,0,0,0,0
1565457184250,-7,53,33,0,0,0,0,0
1565457184281.25,-6,55,34,0,0,0,0,0
1565457184312.5,-5,59,29,0,0,0,0,0
1565457184343.75,-5,60,27,0,0,0,0,0
1565457184375,-8,60,27,0,0,0,0,0
1565457184406.25,-9,59,26,0,0,0,0,0
1565457184437.5,-8,60,26,0,0,0,0,0
1565457184468.75,-7,63,25,0,0,0,0,0
1565457184500,-6,63,23,0,0,0,0,0
1565457184531.25,-7,68,21,0,0,0,0,0
1565457184562.5,-3,67,23,0,0,0,0,0
1565457184593.75,-1,64,22,0,0,0,0,0
1565457184625,0,66,18,0,0,0,0,0
1565457184656.25,-1,68,15,0,0,0,0,0
1565457184687.5,-3,67,12,0,0,0,0,0
1565457184718.75,-2,66,9,0,0,0,0,0
1565457184750,0,65,10,0,0,0,0,0
1565457184781.25,3,60,15,0,0,0,0,0
1565457184812.5,4,57,19,0,0,0,0,0
1565457184843.75,-1,60,18,0,0,0,0,0
1565457184875,-3,63,15,0,0,0,0,0
1565457184906.25,0,64,15,0,0,0,0,0
1565457184937.5,0,61,13,0,0,0,0,0
1565457184968.75,-1,59,13,0,0,0,0,0
1565457185000,-1,61,15,0,0,0,0,0
1565457185031.25,-1,63,14,0,0,0,0,0
1565457185062.5,2,63,24,0,0,0,0,0
1565457185093.75,-1,63,23,0,0,0,0,0
1565457185125,-3,68,16,0,0,0,0,0
1565457185156.25,-1,68,17,0,0,0,0,0
1565457185187.5,1,66,19,0,0,0,0,0
1565457185218.75,0,66,14,0,0,0,0,0
1565457185250,0,75,7,0,0,0,0,0
1565457185281.25,1,77,8,0,0,0,0,0
1565457185312.5,1,65,18,0,0,0,0,0
1565457185343.75,-6,59,22,0,0,0,0,0
1565457185375,-6,61,17,0,0,0,0,0
1565457185406.25,1,58,25,0,0,0,0,0
1565457185437.5,1,58,29,0,0,0,0,0
1565457185468.75,-4,66,21,0,0,0,0,0
1565457185500,-3,67,19,0,0,0,0,0
1565457185531.25,-4,63,17,0,0,0,0,0
1565457185562.5,-6,62,15,0,0,0,0,0
1565457185593.75,-6,59,10,0,0,0,0,0
1565457185625,-5,57,14,0,0,0,0,0
1565457185656.25,-11,57,15,0,0,0,0,0
1565457185687.5,-14,56,16,0,0,0,0,0
1565457185718.75,-16,55,13,0,0,0,0,0
1565457185750,-16,58,9,0,0,0,0,0
1565457185781.25,-14,65,6,0,0,0,0,0
1565457185812.5,-14,66,2,0,0,0,0,0
1565457185843.75,-14,64,1,0,0,0,0,0
1565457185875,-16,62,-7,0,0,0,0,0
1565457185906.25,-16,67,-5,0,0,0,0,0
1565457185937.5,-14,79,1,0,0,0,0,0
1565457185968.75,-11,79,4,0,0,0,0,0
1565457186000,-14,63,8,0,0,0,0,0
1565457186031.25,-19,58,10,0,0,0,0,0
1565457186062.5,-9,60,13,0,0,0,0,0
1565457186093.75,-5,63,16,0,0,0,0,0
1565457186125,-3,63,24,0,0,0,0,0
1565457186156.25,-12,63,16,0,0,0,0,0
1565457186187.5,-20,61,11,0,0,0,0,0
1565457186218.75,-15,62,4,0,0,0,0,0
1565457186250,-9,61,6,0,0,0,0,0
1565457186281.25,-8,59,9,0,0,0,0,0
1565457186312.5,-8,59,8,0,0,0,0,0
1565457186343.75,-9,59,7,0,0,0,0,0
1565457186375,-9,58,8,0,0,0,0,0
1565457186406.25,-8,62,9,0,0,0,0,0
1565457186437.5,-9,66,7,0,0,0,0,0
1565457186468.75,-13,66,7,0,0,0,0,0
1565457186500,-16,66,6,0,0,0,0,0
1565457186531.25,-19,69,-1,0,0,0,0,0
1565457186562.5,-14,72,1,0,0,0,0,0
1565457186593.75,-8,68,16,0,0,0,0,0
1565457186625,-5,64,22,0,0,0,0,0
1565457186656.25,-9,53,15,0,0,0,0,0
1565457186687.5,-7,48,14,0,0,0,0,0
1565457186718.75,-7,47,9,0,0,0,0,0
1565457186750,-5,41,-3,0,0,0,0,0
1565457186781.25,9,36,-1,0,0,0,0,0
1565457186812.5,27,26,20,0,0,0,0,0
1565457186843.75,24,19,38,0,0,0,0,0
1565457186875,31,32,35,0,0,0,0,0
1565457186906.25,26,45,12,0,0,0,0,0
1565457186937.5,52,33,27,0,0,0,0,0
1565457186968.75,65,37,16,0,0,0,0,0
1565457187000,126,52,22,0,0,0,0,0
1565457187031.25,127,58,49,0,0,0,0,0
1565457187062.5,75,10,71,0,0,0,0,0
1565457187093.75,61,8,7,0,0,0,0,0
1565457187125,60,5,-6,0,0,0,0,0
1565457187156.25,52,12,12,0,0,0,0,0
1565457187187.5,59,10,25,0,0,0,0,0
1565457187218.75,74,39,22,0,0,0,0,0
1565457187250,78,44,24,0,0,0,0,0
1565457187281.25,37,33,13,0,0,0,0,0
1565457187312.5,27,31,19,0,0,0,0,0
1565457187343.75,52,29,14,0,0,0,0,0
1565457187375,69,37,1,0,0,0,0,0
1565457187406.25,65,33,0,0,0,0,0,0
1565457187437.5,53,28,2,0,0,0,0,0
1565457187468.75,31,28,7,0,0,0,0,0
1565457187500,36,34,9,0,0,0,0,0
1565457187531.25,44,38,12,0,0,0,0,0
1565457187562.5,50,37,10,0,0,0,0,0
1565457187593.75,49,37,8,0,0,0,0,0
1565457187625,48,42,-1,0,0,0,0,0
1565457187656.25,45,42,1,0,0,0,0,0
1565457187687.5,43,46,1,0,0,0,0,0
1565457187718.75,46,46,4,0,0,0,0,0
1565457187750,49,39,15,0,0,0,0,0
1565457187781.25,43,41,11,0,0,0,0,0
1565457187812.5,44,48,-3,0,0,0,0,0
1565457187843.75,53,49,-2,0,0,0,0,0
1565457187875,55,39,9,0,0,0,0,0
1565457187906.25,53,36,10,0,0,0,0,0
1565457187937.5,52,47,2,0,0,0,0,0
1565457187968.75,61,47,17,0,0,0,0,0
1565457188000,55,50,13,0,0,0,0,0
1565457188031.25,37,45,11,0,0,0,0,0
1565457188062.5,37,50,16,0,0,0,0,0
1565457188093.75,38,56,12,0,0,0,0,0
1565457188125,34,54,11,0,0,0,0,0
1565457188156.25,32,47,21,0,0,0,0,0
1565457188187.5,35,46,19,0,0,0,0,0
1565457188218.75,46,33,67,0,0,0,0,0
1565457188250,56,22,81,0,0,0,0,0
1565457188281.25,-15,26,85,0,0,0,0,0
1565457188312.5,12,28,73,0,0,0,0,0
1565457188343.75,95,55,3,0,0,0,0,0
1565457188375,14,63,-15,0,0,0,0,0
1565457188406.25,-18,78,-33,0,0,0,0,0
1565457188437.5,-11,93,-50,0,0,0,0,0
1565457188468.75,64,97,-3,0,0,0,0,0
1565457188500,20,34,-1,0,0,0,0,0
1565457188531.25,31,30,-49,0,0,0,0,0
1565457188562.5,37,67,-55,0,0,0,0,0
1565457188593.75,18,55,-67,0,0,0,0,0
1565457188625,2,49,-117,0,0,0,0,0
1565457188656.25,-27,36,-118,0,0,0,0,0
1565457188687.5,-40,-32,-68,0,0,0,0,0
1565457188718.75,105,-128,127,0,0,0,0,0
1565457188750,-15,122,-58,0,0,0,0,0
1565457188781.25,99,89,5,0,0,0,0,0
1565457188812.5,-37,54,-3,0,0,0,0,0
1565457188843.75,-34,54,-7,0,0,0,0,0
1565457188875,-18,43,4,0,0,0,0,0
1565457188906.25,-7,24,5,0,0,0,0,0
1565457188937.5,1,28,-1,0,0,0,0,0
1565457188968.75,-1,36,-17,0,0,0,0,0
1565457189000,13,35,-6,0,0,0,0,0
1565457189031.25,54,49,-19,0,0,0,0,0
1565457189062.5,38,65,-21,0,0,0,0,0
1565457189093.75,47,39,4,0,0,0,0,0
1565457189125,59,34,11,0,0,0,0,0
1565457189156.25,116,47,-1,0,0,0,0,0
1565457189187.5,127,47,68,0,0,0,0,0
1565457189218.75,113,13,40,0,0,0,0,0
1565457189250,34,-3,-4,0,0,0,0,0
1565457189281.25,35,-12,2,0,0,0,0,0
1565457189312.5,49,2,-2,0,0,0,0,0
1565457189343.75,64,5,-16,0,0,0,0,0
1565457189375,67,17,-19,0,0,0,0,0
1565457189406.25,90,11,13,0,0,0,0,0
1565457189437.5,52,6,4,0,0,0,0,0
1565457189468.75,51,10,-12,0,0,0,0,0
1565457189500,65,22,-4,0,0,0,0,0
1565457189531.25,65,15,17,0,0,0,0,0
1565457189562.5,52,14,15,0,0,0,0,0
1565457189593.75,48,12,14,0,0,0,0,0
1565457189625,57,12,16,0,0,0,0,0
1565457189656.25,62,13,15,0,0,0,0,0
1565457189687.5,63,10,16,0,0,0,0,0
1565457189718.75,56,8,15,0,0,0,0,0
1565457189750,60,8,13,0,0,0,0,0
1565457189781.25,59,12,5,0,0,0,0,0
1565457189812.5,60,10,9,0,0,0,0,0
1565457189843.75,63,-1,17,0,0,0,0,0
1565457189875,63,-2,12,0,0,0,0,0
1565457189906.25,62,4,1,0,0,0,0,0
1565457189937.5,59,2,5,0,0,0,0,0
1565457189968.75,60,1,10,0,0,0,0,0
1565457190000,58,5,6,0,0,0,0,0
1565457190031.25,57,8,4,0,0,0,0,0
1565457190062.5,56,11,5,0,0,0,0,0
1565457190093.75,57,15,6,0,0,0,0,0
1565457190125,64,19,2,0,0,0,0,0
1565457190156.25,67,20,-1,0,0,0,0,0
1565457190187.5,59,23,-7,0,0,0,0,0
1565457190218.75,65,27,-3,0,0,0,0,0
1565457190250,70,21,4,0,0,0,0,0
1565457190281.25,51,19,4,0,0,0,0,0
1565457190312.5,53,36,-9,0,0,0,0,0
1565457190343.75,54,44,-7,0,0,0,0,0
1565457190375,53,38,6,0,0,0,0,0
1565457190406.25,51,32,7,0,0,0,0,0
1565457190437.5,51,28,2,0,0,0,0,0
1565457190468.75,55,29,2,0,0,0,0,0
1565457190500,59,30,0,0,0,0,0,0
1565457190531.25,56,29,-1,0,0,0,0,0
1565457190562.5,55,29,-1,0,0,0,0,0
1565457190593.75,59,28,-3,0,0,0,0,0
1565457190625,58,23,-3,0,0,0,0,0
1565457190656.25,52,21,-1,0,0,0,0,0
1565457190687.5,51,24,0,0,0,0,0,0
1565457190718.75,51,33,-3,0,0,0,0,0
1565457190750,48,35,-5,0,0,0,0,0
1565457190781.25,36,36,-8,0,0,0,0,0
1565457190812.5,37,36,-8,0,0,0,0,0
1565457190843.75,55,36,-14,0,0,0,0,0
1565457190875,60,29,-15,0,0,0,0,0
1565457190906.25,61,7,-8,0,0,0,0,0
1565457190937.5,65,2,-4,0,0,0,0,0
1565457190968.75,65,3,0,0,0,0,0,0
1565457191000,62,2,2,0,0,0,0,0
1565457191031.25,63,4,5,0,0,0,0,0
1565457191062.5,66,7,5,0,0,0,0,0
1565457191093.75,64,8,3,0,0,0,0,0
1565457191125,61,10,2,0,0,0,0,0
1565457191156.25,62,12,0,0,0,0,0,0
1565457191187.5,64,15,-6,0,0,0,0,0
1565457191218.75,64,13,-7,0,0,0,0,0
1565457191250,61,10,-8,0,0,0,0,0
1565457191281.25,61,10,-13,0,0,0,0,0
1565457191312.5,63,7,-23,0,0,0,0,0
1565457191343.75,58,-1,-16,0,0,0,0,0
1565457191375,56,3,-11,0,0,0,0,0
1565457191406.25,54,16,-23,0,0,0,0,0
1565457191437.5,50,19,-20,0,0,0,0,0
1565457191468.75,51,19,-14,0,0,0,0,0
1565457191500,56,17,-13,0,0,0,0,0
1565457191531.25,66,19,-11,0,0,0,0,0
1565457191562.5,72,21,-16,0,0,0,0,0
1565457191593.75,73,9,-23,0,0,0,0,0
1565457191625,65,4,-21,0,0,0,0,0
1565457191656.25,62,5,-12,0,0,0,0,0
1565457191687.5,61,7,-9,0,0,0,0,0
1565457191718.75,56,10,-8,0,0,0,0,0
1565457191750,51,12,-12,0,0,0,0,0
1565457191781.25,49,16,-19,0,0,0,0,0
1565457191812.5,53,16,-20,0,0,0,0,0
1565457191843.75,62,11,-21,0,0,0,0,0
1565457191875,58,8,-15,0,0,0,1,1
1565457191906.25,56,12,-16,0,0,0,1,1
1565457191937.5,56,18,-16,0,0,0,1,1
1565457191968.75,55,17,-13,0,0,0,1,1
1565457192000,54,16,-15,0,0,0,1,1
1565457192031.25,54,16,-17,0,0,0,1,1
1565457192062.5,57,14,-19,0,0,0,1,1
1565457192093.75,59,14,-19,0,0,0,1,1
1565457192125,59,14,-17,0,0,0,1,1
1565457192156.25,57,16,-15,0,0,0,1,1
1565457192187.5,53,23,-18,0,0,0,1,1
1565457192218.75,51,25,-19,0,0,0,1,1
1565457192250,51,23,-18,0,0,0,1,1
1565457192281.25,50,21,-18,0,0,0,1,1
1565457192312.5,53,16,-17,0,0,0,1,1
1565457192343.75,56,14,-24,0,0,0,1,1
1565457192375,62,11,-30,0,0,0,1,1
1565457192406.25,53,-1,-22,0,0,0,1,1
1565457192437.5,52,1,-19,0,0,0,1,1
1565457192468.75,61,12,-23,0,0,0,1,1
1565457192500,63,12,-17,0,0,0,1,1
1565457192531.25,62,17,-9,0,0,0,1,1
1565457192562.5,60,20,-9,0,0,0,1,1
1565457192593.75,57,27,-9,0,0,0,1,1
1565457192625,54,28,-11,0,0,0,1,1
1565457192656.25,46,28,-18,0,0,0,1,1
1565457192687.5,44,26,-21,0,0,0,1,1
1565457192718.75,46,23,-27,0,0,0,1,1
1565457192750,51,18,-23,0,0,0,1,1
1565457192781.25,51,17,-21,0,0,0,1,1
1565457192812.5,53,18,-20,0,0,0,1,1
1565457192843.75,57,17,-18,0,0,0,1,1
1565457192875,70,15,-19,0,0,0,1,1
1565457192906.25,75,9,-26,0,0,0,1,1
1565457192937.5,72,-2,-17,0,0,0,1,1
1565457192968.75,70,0,-16,0,0,0,1,1
1565457193000,65,10,-19,0,0,0,1,1
1565457193031.25,66,12,-18,0,0,0,1,1
1565457193062.5,64,5,-8,0,0,0,1,1
1565457193093.75,64,3,-3,0,0,0,1,1
1565457193125,58,5,0,0,0,0,1,1
1565457193156.25,55,7,1,0,0,0,1,1
1565457193187.5,51,11,-3,0,0,0,1,1
1565457193218.75,53,12,-9,0,0,0,1,1
1565457193250,56,10,-9,0,0,0,1,1
1565457193281.25,58,6,-12,0,0,0,1,1
1565457193312.5,54,6,-15,0,0,0,1,1
1565457193343.75,53,8,-17,0,0,0,1,1
1565457193375,56,9,-16,0,0,0,1,1
1565457193406.25,55,9,-13,0,0,0,1,1
1565457193437.5,54,11,-9,0,0,0,1,1
1565457193468.75,62,17,-2,0,0,0,1,1
1565457193500,69,17,-1,0,0,0,1,1
1565457193531.25,69,7,-4,0,0,0,1,1
1565457193562.5,62,10,-2,0,0,0,1,1
1565457193593.75,73,10,0,0,0,0,1,1
1565457193625,76,4,4,0,0,0,1,1
1565457193656.25,68,5,6,0,0,0,1,1
1565457193687.5,56,13,4,0,0,0,1,1
1565457193718.75,51,17,1,0,0,0,1,1
1565457193750,48,18,0,0,0,0,1,1
1565457193781.25,48,16,2,0,0,0,1,1
1565457193812.5,51,15,-1,0,0,0,1,1
1565457193843.75,52,15,-3,0,0,0,1,1
1565457193875,53,17,0,0,0,0,1,1
1565457193906.25,51,17,0,0,0,0,1,1
1565457193937.5,51,22,-3,0,0,0,1,1
1565457193968.75,53,22,-3,0,0,0,1,1
1565457194000,72,21,-10,0,0,0,1,1
1565457194031.25,81,15,-11,0,0,0,1,1
1565457194062.5,76,5,-4,0,0,0,1,1
1565457194093.75,66,15,-11,0,0,0,1,1
1565457194125,69,20,-9,0,0,0,1,1
1565457194156.25,63,16,-3,0,0,0,1,1
1565457194187.5,57,12,-2,0,0,0,1,1
1565457194218.75,60,10,-3,0,0,0,1,1
1565457194250,58,10,-5,0,0,0,1,1
1565457194281.25,52,11,-12,0,0,0,1,1
1565457194312.5,51,12,-14,0,0,0,1,1
1565457194343.75,52,9,-15,0,0,0,1,1
1565457194375,52,7,-16,0,0,0,1,1
1565457194406.25,50,7,-19,0,0,0,1,1
1565457194437.5,52,8,-18,0,0,0,0,0
1565457194468.75,55,10,-13,0,0,0,0,0
1565457194500,56,18,-11,0,0,0,0,0
1565457194531.25,62,24,-12,0,0,0,0,0
1565457194562.5,80,13,-18,0,0,0,0,0
1565457194593.75,74,10,-12,0,0,0,0,0
1565457194625,69,9,-5,0,0,0,0,0
1565457194656.25,71,13,-11,0,0,0,0,0
1565457194687.5,62,14,-9,0,0,0,0,0
1565457194718.75,58,15,-5,0,0,0,0,0
1565457194750,54,20,-10,0,0,0,0,0
1565457194781.25,55,23,-8,0,0,0,0,0
1565457194812.5,50,25,-5,0,0,0,0,0
1565457194843.75,46,24,-7,0,0,0,0,0
1565457194875,43,20,-9,0,0,0,0,0
1565457194906.25,48,17,-8,0,0,0,0,0
1565457194937.5,48,16,-9,0,0,0,0,0
1565457194968.75,53,20,-10,0,0,0,0,0
1565457195000,57,17,-9,0,0,0,0,0
1565457195031.25,67,8,-12,0,0,0,0,0
1565457195062.5,70,11,-14,0,0,0,0,0
1565457195093.75,84,18,-9,0,0,0,0,0
1565457195125,71,13,-8,0,0,0,0,0
1565457195156.25,69,17,-11,0,0,0,0,0
1565457195187.5,78,17,-6,0,0,0,0,0
1565457195218.75,64,5,-4,0,0,0,0,0
1565457195250,59,7,-5,0,0,0,0,0
1565457195281.25,52,9,0,0,0,0,0,0
1565457195312.5,51,12,2,0,0,0,0,0
1565457195343.75,50,15,0,0,0,0,0,0
1565457195375,51,16,-2,0,0,0,0,0
1565457195406.25,51,17,-4,0,0,0,0,0
1565457195437.5,51,17,-9,0,0,0,0,0
1565457195468.75,52,18,-10,0,0,0,0,0
1565457195500,57,20,-11,0,0,0,0,0
1565457195531.25,56,18,-9,0,0,0,0,0
1565457195562.5,58,27,-9,0,0,0,0,0
1565457195593.75,66,31,-9,0,0,0,0,0
1565457195625,68,18,-4,0,0,0,0,0
1565457195656.25,70,13,-1,0,0,0,0,0
1565457195687.5,73,12,5,0,0,0,0,0
1565457195718.75,74,11,3,0,0,0,0,0
1565457195750,62,11,2,0,0,0,0,0
1565457195781.25,54,19,0,0,0,0,0,0
1565457195812.5,54,23,0,0,0,0,0,0
1565457195843.75,55,28,6,0,0,0,0,0
1565457195875,53,27,6,0,0,0,0,0
1565457195906.25,41,22,-5,0,0,0,0,0
1565457195937.5,43,22,-5,0,0,0,0,0
1565457195968.75,47,20,-5,0,0,0,0,0
1565457196000,47,22,-7,0,0,0,0,0
1565457196031.25,62,24,-6,0,0,0,0,0
1565457196062.5,63,24,-4,0,0,0,0,0
1565457196093.75,64,28,-3,0,0,0,0,0
1565457196125,71,25,-4,0,0,0,0,0
1565457196156.25,73,22,1,0,0,0,0,0
1565457196187.5,72,22,0,0,0,0,0,0
1565457196218.75,76,19,-8,0,0,0,0,0
1565457196250,68,5,-1,0,0,0,0,0
1565457196281.25,59,6,-2,0,0,0,0,0
1565457196312.5,53,11,0,0,0,0,0,0
1565457196343.75,50,13,0,0,0,0,0,0
1565457196375,46,17,-2,0,0,0,0,0
1565457196406.25,47,16,-4,0,0,0,0,0
1565457196437.5,47,16,-7,0,0,0,0,0
1565457196468.75,49,17,-7,0,0,0,0,0
1565457196500,53,20,-10,0,0,0,0,0
1565457196531.25,54,22,-10,0,0,0,0,0
1565457196562.5,53,24,-8,0,0,0,0,0
1565457196593.75,47,27,-8,0,0,0,0,0
1565457196625,58,42,-9,0,0,0,0,0
1565457196656.25,67,26,-10,0,0,0,0,0
1565457196687.5,65,21,-6,0,0,0,0,0
1565457196718.75,67,23,-3,0,0,0,0,0
1565457196750,70,22,-5,0,0,0,0,0
1565457196781.25,65,18,-2,0,0,0,0,0
1565457196812.5,59,19,-1,0,0,0,0,0
1565457196843.75,54,27,-3,0,0,0,0,0
1565457196875,53,30,-2,0,0,0,0,0
1565457196906.25,53,30,1,0,0,0,0,0
1565457196937.5,48,26,1,0,0,0,0,0
1565457196968.75,38,22,-7,0,0,0,0,0
1565457197000,51,23,-3,0,0,0,0,0
1565457197031.25,49,19,-1,0,0,0,0,0
1565457197062.5,45,20,-3,0,0,0,0,0
1565457197093.75,56,26,-4,0,0,0,0,0
1565457197125,62,22,-7,0,0,0,0,0
1565457197156.25,72,25,-12,0,0,0,0,0
1565457197187.5,80,23,-2,0,0,0,0,0
1565457197218.75,75,23,0,0,0,0,0,0
1565457197250,59,27,-12,0,0,0,0,0
1565457197281.25,66,29,-15,0,0,0,0,0
1565457197312.5,66,13,-5,0,0,0,0,0
1565457197343.75,55,11,-8,0,0,0,0,0
1565457197375,53,19,-8,0,0,0,0,0
1565457197406.25,48,20,-5,0,0,0,0,0
1565457197437.5,45,21,-4,0,0,0,0,0
1565457197468.75,43,22,-6,0,0,0,0,0
1565457197500,45,23,-8,0,0,0,0,0
1565457197531.25,51,22,-9,0,0,0,0,0
1565457197562.5,54,21,-9,0,0,0,0,0
1565457197593.75,54,21,-8,0,0,0,0,0
1565457197625,53,22,-6,0,0,0,0,0
1565457197656.25,48,27,-3,0,0,0,0,0
1565457197687.5,56,36,-5,0,0,0,0,0
1565457197718.75,66,25,-6,0,0,0,0,0
1565457197750,68,19,-6,0,0,0,0,0
1565457197781.25,77,16,-5,0,0,0,0,0
1565457197812.5,77,20,-7,0,0,0,0,0
1565457197843.75,70,21,-4,0,0,0,0,0
1565457197875,61,21,-1,0,0,0,0,0
1565457197906.25,53,28,-3,0,0,0,0,0
1565457197937.5,49,31,-1,0,0,0,0,0
1565457197968.75,46,30,-1,0,0,0,0,0
1565457198000,42,28,-4,0,0,0,0,0
1565457198031.25,43,28,-5,0,0,0,0,0
1565457198062.5,46,24,-5,0,0,0,0,0
1565457198093.75,47,23,-5,0,0,0,0,0
1565457198125,51,25,-6,0,0,0,0,0
1565457198156.25,54,25,-3,0,0,0,0,0
1565457198187.5,62,30,-6,0,0,0,0,0
1565457198218.75,71,31,-11,0,0,0,0,0
1565457198250,73,21,-5,0,0,0,0,0
1565457198281.25,66,25,-1,0,0,0,0,0
1565457198312.5,59,30,-8,0,0,0,0,0
1565457198343.75,56,27,-12,0,0,0,0,0
1565457198375,66,21,-4,0,0,0,0,0
1565457198406.25,55,17,-3,0,0,0,0,0
1565457198437.5,56,22,1,0,0,0,0,0
1565457198468.75,53,27,4,0,0,0,0,0
1565457198500,49,28,-2,0,0,0,0,0
1565457198531.25,46,28,-10,0,0,0,0,0
1565457198562.5,47,28,-15,0,0,0,0,0
1565457198593.75,53,24,-14,0,0,0,0,0
1565457198625,56,23,-10,0,0,0,0,0
1565457198656.25,55,26,-9,0,0,0,0,0
1565457198687.5,50,29,-11,0,0,0,0,0
1565457198718.75,48,34,-5,0,0,0,0,0
1565457198750,50,36,-4,0,0,0,0,0
1565457198781.25,53,30,-3,0,0,0,0,0
1565457198812.5,53,28,-4,0,0,0,0,0
1565457198843.75,53,29,-6,0,0,0,0,0
1565457198875,61,27,-10,0,0,0,0,0
1565457198906.25,59,26,-2,0,0,0,0,0
1565457198937.5,54,35,3,0,0,0,0,0
1565457198968.75,52,37,5,0,0,0,0,0
1565457199000,45,39,-2,0,0,0,0,0
1565457199031.25,43,40,-6,0,0,0,0,0
1565457199062.5,50,40,-10,0,0,0,0,0
1565457199093.75,53,38,-11,0,0,0,0,0
1565457199125,53,34,-8,0,0,0,0,0
1565457199156.25,50,34,-6,0,0,0,0,0
1565457199187.5,47,37,-5,0,0,0,0,0
1565457199218.75,52,36,-3,0,0,0,0,0
1565457199250,55,36,-4,0,0,0,0,0
1565457199281.25,63,30,-12,0,0,0,0,0
1565457199312.5,63,27,-12,0,0,0,0,0
1565457199343.75,62,29,-12,0,0,0,0,0
1565457199375,58,28,-11,0,0,0,0,0
1565457199406.25,52,29,-10,0,0,0,0,0
1565457199437.5,50,30,-10,0,0,0,0,0
1565457199468.75,55,29,-10,0,0,0,0,0
1565457199500,62,26,-7,0,0,0,0,0
1565457199531.25,53,21,-4,0,0,0,0,0
1565457199562.5,51,22,-3,0,0,0,0,0
1565457199593.75,55,25,6,0,0,0,0,0
1565457199625,59,26,10,0,0,0,0,0
1565457199656.25,55,25,15,0,0,0,0,0
1565457199687.5,59,25,14,0,0,0,0,0
1565457199718.75,63,25,13,0,0,0,0,0
1565457199750,57,22,18,0,0,0,0,0
1565457199781.25,43,21,19,0,0,0,0,0
1565457199812.5,32,28,21,0,0,0,0,0
1565457199843.75,53,30,33,0,0,0,0,0
1565457199875,71,22,48,0,0,0,0,0
1565457199906.25,59,19,42,0,0,0,0,0
1565457199937.5,25,17,36,0,0,0,0,0
1565457199968.75,24,18,38,0,0,0,0,0
1565457200000,35,21,48,0,0,0,0,0
1565457200031.25,42,22,52,0,0,0,0,0
1565457200062.5,43,22,43,0,0,0,0,0
1565457200093.75,36,22,36,0,0,0,0,0
1565457200125,49,20,40,0,0,0,0,0
1565457200156.25,52,23,34,0,0,0,0,0
1565457200187.5,54,24,34,0,0,0,0,0
1565457200218.75,57,22,35,0,0,0,0,0
1565457200250,59,23,34,0,0,0,0,0
1565457200281.25,51,21,27,0,0,0,0,0
1565457200312.5,44,20,22,0,0,0,0,0
1565457200343.75,41,25,17,0,0,0,0,0
1565457200375,44,24,13,0,0,0,0,0
1565457200406.25,57,26,15,0,0,0,0,0
1565457200437.5,61,27,21,0,0,0,0,0
1565457200468.75,57,25,17,0,0,0,0,0
1565457200500,53,26,15,0,0,0,0,0
1565457200531.25,52,28,10,0,0,0,0,0
1565457200562.5,51,28,7,0,0,0,0,0
1565457200593.75,49,25,7,0,0,0,0,0
1565457200625,54,19,10,0,0,0,0,0
1565457200656.25,62,18,5,0,0,0,0,0
1565457200687.5,64,25,-13,0,0,0,0,0
1565457200718.75,62,27,-21,0,0,0,0,0
1565457200750,48,26,-28,0,0,0,0,0
1565457200781.25,41,26,-32,0,0,0,0,0
1565457200812.5,46,27,-33,0,0,0,0,0
1565457200843.75,50,29,-36,0,0,0,0,0
1565457200875,51,31,-39,0,0,0,0,0
1565457200906.25,50,31,-36,0,0,0,0,0
1565457200937.5,39,30,-38,0,0,0,0,0
1565457200968.75,36,30,-38,0,0,0,0,0
1565457201000,38,30,-39,0,0,0,0,0
1565457201031.25,41,31,-39,0,0,0,0,0
1565457201062.5,40,31,-38,0,0,0,0,0
1565457201093.75,39,31,-38,0,0,0,0,0
1565457201125,38,32,-38,0,0,0,0,0
1565457201156.25,35,32,-39,0,0,0,0,0
1565457201187.5,35,32,-41,0,0,0,0,0
1565457201218.75,33,33,-40,0,0,0,0,0
1565457201250,32,34,-41,0,0,0,0,0
1565457201281.25,33,34,-40,0,0,0,0,0
1565457201312.5,33,34,-41,0,0,0,0,0
1565457201343.75,31,34,-39,0,0,0,0,0
1565457201375,30,34,-39,0,0,0,0,0
1565457201406.25,31,35,-39,0,0,0,0,0
1565457201437.5,31,36,-40,0,0,0,0,0
1565457201468.75,31,37,-40,0,0,0,0,0
1565457201500,30,38,-40,0,0,0,0,0
1565457201531.25,31,38,-40,0,0,0,0,0
1565457201562.5,30,39,-41,0,0,0,0,0
1565457201593.75,30,39,-41,0,0,0,0,0
1565457201625,30,39,-41,0,0,0,0,0
1565457201656.25,29,39,-41,0,0,0,0,0
1565457201687.5,28,39,-40,0,0,0,0,0
1565457201718.75,28,40,-40,0,0,0,0,0
1565457201750,30,39,-39,0,0,0,0,0
1565457201781.25,31,39,-39,0,0,0,0,0
1565457201812.5,29,38,-39,0,0,0,0,0
1565457201843.75,28,39,-40,0,0,0,0,0
1565457201875,29,39,-39,0,0,0,0,0
1565457201906.25,29,39,-41,0,0,0,0,0
1565457201937.5,29,39,-39,0,0,0,0,0
1565457201968.75,28,39,-37,0,0,0,0,0
1565457202000,28,39,-37,0,0,0,0,0
1565457202031.25,29,40,-40,0,0,0,0,0
1565457202062.5,29,41,-41,0,0,0,0,0
1565457202093.75,28,40,-41,0,0,0,0,0
1565457202125,28,40,-40,0,0,0,0,0
1565457202156.25,29,40,-38,0,0,0,0,0
1565457202187.5,30,40,-38,0,0,0,0,0
1565457202218.75,32,41,-38,0,0,0,0,0
1565457202250,31,40,-37,0,0,0,0,0
1565457202281.25,29,40,-38,0,0,0,0,0
1565457202312.5,28,40,-39,0,0,0,0,0
1565457202343.75,28,40,-39,0,0,0,0,0
1565457202375,31,41,-36,0,0,0,0,0
1565457202406.25,31,41,-36,0,0,0,0,0
1565457202437.5,30,41,-36,0,0,0,0,0
1565457202468.75,29,41,-37,0,0,0,0,0
1565457202500,30,42,-38,0,0,0,0,0
1565457202531.25,30,42,-37,0,0,0,0,0
1565457202562.5,31,42,-36,0,0,0,0,0
1565457202593.75,30,41,-36,0,0,0,0,0
1565457202625,29,41,-38,0,0,0,0,0
1565457202656.25,29,41,-38,0,0,0,1,1
1565457202687.5,31,40,-38,0,0,0,1,1
1565457202718.75,30,40,-38,0,0,0,1,1
1565457202750,31,40,-37,0,0,0,1,1
1565457202781.25,32,39,-36,0,0,0,1,1
1565457202812.5,32,40,-35,0,0,0,1,1
1565457202843.75,32,41,-37,0,0,0,1,1
1565457202875,30,41,-40,0,0,0,1,1
1565457202906.25,29,41,-37,0,0,0,1,1
1565457202937.5,34,42,-34,0,0,0,1,1
1565457202968.75,34,42,-37,0,0,0,1,1
1565457203000,33,41,-38,0,0,0,1,1
1565457203031.25,30,40,-34,0,0,0,1,1
1565457203062.5,31,40,-33,0,0,0,1,1
1565457203093.75,34,40,-35,0,0,0,1,1
1565457203125,34,40,-36,0,0,0,1,1
1565457203156.25,31,41,-38,0,0,0,1,1
1565457203187.5,31,40,-36,0,0,0,1,1
1565457203218.75,32,40,-34,0,0,0,1,1
1565457203250,34,40,-35,0,0,0,1,1
1565457203281.25,33,40,-36,0,0,0,1,1
1565457203312.5,32,41,-35,0,0,0,1,1
1565457203343.75,32,41,-35,0,0,0,1,1
1565457203375,33,41,-36,0,0,0,1,1
1565457203406.25,32,41,-36,0,0,0,1,1
1565457203437.5,29,40,-35,0,0,0,1,1
1565457203468.75,32,40,-35,0,0,0,0,0
1565457203500,35,40,-37,0,0,0,0,0
1565457203531.25,35,40,-35,0,0,0,0,0
1565457203562.5,34,39,-32,0,0,0,0,0
1565457203593.75,34,39,-32,0,0,0,0,0
1565457203625,34,39,-34,0,0,0,0,0
1565457203656.25,36,40,-33,0,0,0,0,0
1565457203687.5,37,40,-32,0,0,0,0,0
1565457203718.75,36,39,-32,0,0,0,0,0
1565457203750,35,39,-33,0,0,0,0,0
1565457203781.25,35,39,-33,0,0,0,0,0
1565457203812.5,37,39,-32,0,0,0,0,0
1565457203843.75,40,40,-31,0,0,0,0,0
1565457203875,39,39,-31,0,0,0,0,0
1565457203906.25,38,40,-30,0,0,0,0,0
1565457203937.5,39,40,-30,0,0,0,0,0
1565457203968.75,40,40,-29,0,0,0,0,0
1565457204000,38,40,-29,0,0,0,0,0
1565457204031.25,38,39,-28,0,0,0,0,0
1565457204062.5,41,40,-26,0,0,0,0,0
1565457204093.75,42,40,-26,0,0,0,0,0
1565457204125,40,40,-27,0,0,0,0,0
1565457204156.25,39,39,-27,0,0,0,0,0
1565457204187.5,38,40,-29,0,0,0,0,0
1565457204218.75,39,41,-30,0,0,0,0,0
1565457204250,38,40,-30,0,0,0,0,0
1565457204281.25,37,40,-30,0,0,0,0,0
1565457204312.5,35,40,-31,0,0,0,0,0
1565457204343.75,35,40,-31,0,0,0,0,0
1565457204375,37,41,-32,0,0,0,0,0
1565457204406.25,37,41,-32,0,0,0,0,0
1565457204437.5,33,41,-33,0,0,0,0,0
1565457204468.75,31,41,-34,0,0,0,0,0
1565457204500,33,41,-34,0,0,0,0,0
1565457204531.25,33,41,-34,0,0,0,0,0
1565457204562.5,33,41,-35,0,0,0,0,0
1565457204593.75,31,41,-35,0,0,0,0,0
1565457204625,31,41,-35,0,0,0,0,0
1565457204656.25,31,42,-36,0,0,0,0,0
1565457204687.5,32,41,-36,0,0,0,0,0
1565457204718.75,30,41,-36,0,0,0,0,0
1565457204750,30,42,-37,0,0,0,0,0
1565457204781.25,30,42,-38,0,0,0,0,0
1565457204812.5,30,42,-38,0,0,0,0,0
1565457204843.75,30,42,-37,0,0,0,0,0
1565457204875,30,42,-37,0,0,0,0,0
1565457204906.25,27,41,-36,0,0,0,0,0
1565457204937.5,28,41,-36,0,0,0,0,0
1565457204968.75,31,42,-37,0,0,0,0,0
1565457205000,30,41,-38,0,0,0,0,0
1565457205031.25,31,40,-36,0,0,0,0,0
1565457205062.5,33,40,-34,0,0,0,0,0
1565457205093.75,33,41,-34,0,0,0,0,0
1565457205125,32,41,-38,0,0,0,0,0
1565457205156.25,28,41,-39,0,0,0,0,0
1565457205187.5,31,41,-36,0,0,0,0,0
1565457205218.75,33,40,-33,0,0,0,0,0
1565457205250,32,38,-32,0,0,0,0,0
1565457205281.25,34,39,-32,0,0,0,0,0
1565457205312.5,38,40,-33,0,0,0,0,0
1565457205343.75,37,40,-33,0,0,0,0,0
1565457205375,36,39,-32,0,0,0,0,0
1565457205406.25,39,40,-33,0,0,0,0,0
1565457205437.5,40,40,-32,0,0,0,0,0
1565457205468.75,37,40,-29,0,0,0,0,0
1565457205500,37,40,-29,0,0,0,0,0
1565457205531.25,40,41,-30,0,0,0,0,0
1565457205562.5,42,41,-30,0,0,0,0,0
1565457205593.75,42,41,-26,0,0,0,0,0
1565457205625,41,41,-25,0,0,0,0,0
1565457205656.25,39,40,-24,0,0,0,0,0
1565457205687.5,42,40,-23,0,0,0,0,0
1565457205718.75,43,41,-23,0,0,0,0,0
1565457205750,43,41,-23,0,0,0,0,0
1565457205781.25,44,40,-23,0,0,0,0,0
1565457205812.5,42,40,-23,0,0,0,0,0
1565457205843.75,38,39,-24,0,0,0,0,0
1565457205875,35,39,-27,0,0,0,0,0
1565457205906.25,37,39,-27,0,0,0,0,0
1565457205937.5,38,40,-29,0,0,0,0,0
1565457205968.75,36,41,-30,0,0,0,0,0
1565457206000,37,41,-31,0,0,0,0,0
1565457206031.25,36,41,-31,0,0,0,0,0
1565457206062.5,35,42,-32,0,0,0,0,0
1565457206093.75,35,42,-33,0,0,0,0,0
1565457206125,33,42,-35,0,0,0,0,0
1565457206156.25,32,42,-35,0,0,0,0,0
1565457206187.5,32,42,-37,0,0,0,0,0
1565457206218.75,31,42,-37,0,0,0,0,0
1565457206250,31,41,-36,0,0,0,0,0
1565457206281.25,28,40,-36,0,0,0,0,0
1565457206312.5,25,40,-38,0,0,0,0,0
1565457206343.75,26,40,-40,0,0,0,0,0
1565457206375,27,40,-41,0,0,0,0,0
1565457206406.25,27,40,-40,0,0,0,0,0
1565457206437.5,27,39,-39,0,0,0,0,0
1565457206468.75,28,39,-39,0,0,0,0,0
1565457206500,31,39,-40,0,0,0,0,0
1565457206531.25,36,39,-37,0,0,0,0,0
1565457206562.5,36,38,-36,0,0,0,0,0
1565457206593.75,29,37,-43,0,0,0,0,0
1565457206625,25,36,-41,0,0,0,0,0
1565457206656.25,38,38,-36,0,0,0,0,0
1565457206687.5,43,38,-34,0,0,0,0,0
1565457206718.75,39,36,-27,0,0,0,0,0
1565457206750,46,33,-20,0,0,0,0,0
1565457206781.25,52,33,-19,0,0,0,0,0
1565457206812.5,58,35,-17,0,0,0,0,0
1565457206843.75,55,34,-17,0,0,0,0,0
1565457206875,47,31,-15,0,0,0,0,0
1565457206906.25,49,31,-12,0,0,0,0,0
1565457206937.5,63,32,-7,0,0,0,0,0
1565457206968.75,62,31,-5,0,0,0,0,0
1565457207000,42,26,-7,0,0,0,0,0
1565457207031.25,40,28,-8,0,0,0,0,0
1565457207062.5,61,33,1,0,0,0,0,0
1565457207093.75,65,33,0,0,0,0,0,0
1565457207125,57,30,-8,0,0,0,0,0
1565457207156.25,48,29,-9,0,0,0,0,0
1565457207187.5,58,27,-10,0,0,0,0,0
1565457207218.75,56,34,-9,0,0,0,0,0
1565457207250,48,33,-11,0,0,0,0,0
1565457207281.25,60,26,-6,0,0,0,0,0
1565457207312.5,75,19,4,0,0,0,0,0
1565457207343.75,49,12,18,0,0,0,0,0
1565457207375,39,8,13,0,0,0,0,0
1565457207406.25,54,21,-2,0,0,0,0,0
1565457207437.5,75,22,2,0,0,0,0,0
1565457207468.75,60,21,-1,0,0,0,0,0
1565457207500,54,19,-3,0,0,0,0,0
1565457207531.25,52,23,3,0,0,0,0,0
1565457207562.5,61,26,12,0,0,0,0,0
1565457207593.75,64,25,11,0,0,0,0,0
1565457207625,54,24,7,0,0,0,0,0
1565457207656.25,48,25,6,0,0,0,0,0
1565457207687.5,49,21,10,0,0,0,0,0
1565457207718.75,51,23,10,0,0,0,0,0
1565457207750,62,27,13,0,0,0,0,0
1565457207781.25,69,27,14,0,0,0,0,0
1565457207812.5,64,24,13,0,0,0,0,0
1565457207843.75,56,23,11,0,0,0,0,0
1565457207875,47,24,8,0,0,0,0,0
1565457207906.25,52,25,8,0,0,0,0,0
1565457207937.5,58,27,5,0,0,0,0,0
1565457207968.75,60,25,7,0,0,0,0,0
1565457208000,55,27,6,0,0,0,0,0
1565457208031.25,55,23,13,0,0,0,0,0
1565457208062.5,57,21,15,0,0,0,0,0
1565457208093.75,56,23,8,0,0,0,0,0
1565457208125,57,23,6,0,0,0,0,0
1565457208156.25,60,23,6,0,0,0,0,0
1565457208187.5,55,22,2,0,0,0,0,0
1565457208218.75,59,22,2,0,0,0,0,0
1565457208250,65,24,2,0,0,0,0,0
1565457208281.25,53,25,-5,0,0,0,0,0
1565457208312.5,49,26,-4,0,0,0,0,0
1565457208343.75,67,29,12,0,0,0,0,0
1565457208375,52,31,5,0,0,0,0,0
1565457208406.25,27,31,-9,0,0,0,0,0
1565457208437.5,49,38,-24,0,0,0,0,0
1565457208468.75,53,39,-27,0,0,0,0,0
1565457208500,54,37,-27,0,0,0,0,0
1565457208531.25,57,36,-21,0,0,0,0,0
1565457208562.5,48,35,-14,0,0,0,0,0
1565457208593.75,44,33,-16,0,0,0,0,0
1565457208625,51,30,-23,0,0,0,0,0
1565457208656.25,52,29,-26,0,0,0,0,0
1565457208687.5,49,28,-27,0,0,0,0,0
1565457208718.75,49,27,-26,0,0,0,0,0
1565457208750,47,28,-26,0,0,0,0,0
1565457208781.25,43,28,-26,0,0,0,0,0
1565457208812.5,45,30,-25,0,0,0,0,0
1565457208843.75,46,27,-26,0,0,0,0,0
1565457208875,47,25,-26,0,0,0,0,0
1565457208906.25,48,29,-27,0,0,0,0,0
1565457208937.5,50,28,-26,0,0,0,0,0
1565457208968.75,55,25,-22,0,0,0,0,0
1565457209000,53,24,-20,0,0,0,0,0
1565457209031.25,50,24,-19,0,0,0,0,0
1565457209062.5,49,23,-24,0,0,0,0,0
1565457209093.75,55,23,-23,0,0,0,0,0
1565457209125,56,24,-21,0,0,0,0,0
1565457209156.25,53,26,-23,0,0,0,0,0
1565457209187.5,50,27,-24,0,0,0,0,0
1565457209218.75,48,29,-24,0,0,0,0,0
1565457209250,49,28,-21,0,0,0,0,0
1565457209281.25,52,29,-29,0,0,0,0,0
1565457209312.5,50,30,-33,0,0,0,0,0
1565457209343.75,47,28,-32,0,0,0,0,0
1565457209375,50,26,-31,0,0,0,0,0
1565457209406.25,52,26,-30,0,0,0,0,0
1565457209437.5,52,22,-28,0,0,0,0,0
1565457209468.75,52,20,-28,0,0,0,0,0
1565457209500,52,19,-28,0,0,0,0,0
1565457209531.25,59,19,-31,0,0,0,0,0
1565457209562.5,63,10,-34,0,0,0,0,0
1565457209593.75,55,9,-31,0,0,0,0,0
1565457209625,51,10,-26,0,0,0,0,0
1565457209656.25,51,10,-25,0,0,0,0,0
1565457209687.5,50,10,-22,0,0,0,0,0
1565457209718.75,46,12,-23,0,0,0,0,0
1565457209750,48,12,-25,0,0,0,0,0
1565457209781.25,59,9,-36,0,0,0,0,0
1565457209812.5,65,8,-38,0,0,0,0,0
1565457209843.75,55,9,-31,0,0,0,0,0
1565457209875,52,8,-28,0,0,0,0,0
1565457209906.25,48,10,-24,0,0,0,0,0
1565457209937.5,48,13,-22,0,0,0,0,0
1565457209968.75,49,17,-24,0,0,0,0,0
1565457210000,48,19,-27,0,0,0,0,0
1565457210031.25,52,22,-29,0,0,0,0,0
1565457210062.5,52,21,-31,0,0,0,0,0
1565457210093.75,51,20,-31,0,0,0,0,0
1565457210125,50,19,-29,0,0,0,0,0
1565457210156.25,50,20,-27,0,0,0,0,0
1565457210187.5,52,21,-26,0,0,0,0,0
1565457210218.75,52,23,-26,0,0,0,0,0
1565457210250,52,26,-27,0,0,0,0,0
1565457210281.25,50,27,-28,0,0,0,0,0
1565457210312.5,47,28,-31,0,0,0,0,0
1565457210343.75,48,29,-28,0,0,0,0,0
1565457210375,52,29,-28,0,0,0,0,0
1565457210406.25,51,29,-29,0,0,0,0,0
1565457210437.5,45,25,-28,0,0,0,0,0
1565457210468.75,45,25,-24,0,0,0,0,0
1565457210500,52,26,-22,0,0,0,0,0
1565457210531.25,52,26,-24,0,0,0,0,0
1565457210562.5,50,25,-25,0,0,0,0,0
1565457210593.75,49,23,-22,0,0,0,0,0
1565457210625,49,24,-22,0,0,0,0,0
1565457210656.25,48,27,-25,0,0,0,0,0
1565457210687.5,47,28,-23,0,0,0,0,0
1565457210718.75,51,28,-26,0,0,0,0,0
1565457210750,53,29,-24,0,0,0,0,0
1565457210781.25,51,28,-25,0,0,0,0,0
1565457210812.5,48,28,-25,0,0,0,0,0
1565457210843.75,48,27,-23,0,0,0,0,0
1565457210875,49,27,-23,0,0,0,0,0
1565457210906.25,51,27,-24,0,0,0,0,0
1565457210937.5,51,26,-25,0,0,0,0,0
1565457210968.75,51,26,-27,0,0,0,0,0
1565457211000,51,27,-25,0,0,0,0,0
1565457211031.25,49,27,-25,0,0,0,0,0
1565457211062.5,52,27,-23,0,0,0,0,0
1565457211093.75,50,26,-22,0,0,0,0,0
1565457211125,49,25,-22,0,0,0,0,0
1565457211156.25,50,26,-22,0,0,0,0,0
1565457211187.5,52,26,-23,0,0,0,0,0
1565457211218.75,53,26,-23,0,0,0,0,0
1565457211250,51,26,-22,0,0,0,0,0
1565457211281.25,51,26,-22,0,0,0,0,0
1565457211312.5,51,26,-22,0,0,0,0,0
1565457211343.75,52,26,-22,0,0,0,0,0
1565457211375,52,26,-22,0,0,0,0,0
1565457211406.25,51,26,-22,0,0,0,0,0
1565457211437.5,52,26,-23,0,0,0,0,0
1565457211468.75,52,27,-23,0,0,0,0,0
1565457211500,53,27,-23,0,0,0,0,0
1565457211531.25,53,28,-22,0,0,0,0,0
1565457211562.5,51,27,-23,0,0,0,0,0
1565457211593.75,47,27,-26,0,0,0,0,0
1565457211625,53,27,-22,0,0,0,0,0
1565457211656.25,54,27,-22,0,0,0,0,0
1565457211687.5,50,26,-22,0,0,0,0,0
1565457211718.75,47,24,-19,0,0,0,0,0
1565457211750,47,24,-18,0,0,0,0,0
1565457211781.25,50,26,-18,0,0,0,0,0
1565457211812.5,51,27,-21,0,0,0,0,0
1565457211843.75,51,28,-25,0,0,0,0,0
1565457211875,50,29,-24,0,0,0,0,0
1565457211906.25,50,28,-24,0,0,0,0,0
1565457211937.5,46,27,-27,0,0,0,0,0
1565457211968.75,47,27,-26,0,0,0,0,0
1565457212000,53,28,-25,0,0,0,0,0
1565457212031.25,55,27,-25,0,0,0,0,0
1565457212062.5,48,27,-27,0,0,0,0,0
1565457212093.75,44,27,-27,0,0,0,0,0
1565457212125,48,27,-27,0,0,0,0,0
1565457212156.25,51,28,-26,0,0,0,0,0
1565457212187.5,52,28,-24,0,0,0,0,0
1565457212218.75,54,29,-24,0,0,0,0,0
1565457212250,46,27,-29,0,0,0,0,0
1565457212281.25,44,27,-28,0,0,0,0,0
1565457212312.5,55,30,-22,0,0,0,0,0
1565457212343.75,55,29,-22,0,0,0,0,0
1565457212375,44,27,-20,0,0,0,0,0
1565457212406.25,46,26,-21,0,0,0,0,0
1565457212437.5,49,27,-22,0,0,0,0,0
1565457212468.75,53,29,-24,0,0,0,0,0
1565457212500,52,29,-26,0,0,0,0,0
1565457212531.25,47,28,-28,0,0,0,0,0
1565457212562.5,45,27,-28,0,0,0,0,0
1565457212593.75,48,28,-27,0,0,0,0,0
1565457212625,48,28,-29,0,0,0,0,0
1565457212656.25,46,28,-29,0,0,0,0,0
1565457212687.5,44,28,-28,0,0,0,0,0
1565457212718.75,49,27,-28,0,0,0,0,0
1565457212750,47,27,-29,0,0,0,0,0
1565457212781.25,45,27,-30,0,0,0,0,0
1565457212812.5,53,29,-30,0,0,0,0,0
1565457212843.75,56,30,-31,0,0,0,0,0
1565457212875,50,29,-29,0,0,0,0,0
1565457212906.25,43,27,-31,0,0,0,0,0
1565457212937.5,37,26,-33,0,0,0,0,0
1565457212968.75,41,26,-32,0,0,0,0,0
1565457213000,50,28,-30,0,0,0,0,0
1565457213031.25,50,28,-29,0,0,0,0,0
1565457213062.5,46,27,-28,0,0,0,0,0
1565457213093.75,46,27,-27,0,0,0,0,0
1565457213125,50,28,-28,0,0,0,0,0
1565457213156.25,51,29,-28,0,0,0,0,0
1565457213187.5,45,27,-27,0,0,0,0,0
1565457213218.75,46,26,-26,0,0,0,0,0
1565457213250,52,27,-25,0,0,0,0,0
1565457213281.25,49,27,-26,0,0,0,0,0
1565457213312.5,48,28,-26,0,0,0,0,0
1565457213343.75,49,28,-27,0,0,0,0,0
1565457213375,49,28,-26,0,0,0,0,0
1565457213406.25,48,28,-27,0,0,0,0,0
1565457213437.5,48,27,-27,0,0,0,0,0
1565457213468.75,49,28,-28,0,0,0,0,0
1565457213500,49,27,-27,0,0,0,0,0
1565457213531.25,47,26,-26,0,0,0,0,0
1565457213562.5,48,27,-26,0,0,0,0,0
1565457213593.75,49,28,-27,0,0,0,0,0
1565457213625,49,28,-27,0,0,0,0,0
1565457213656.25,47,29,-28,0,0,0,0,0
1565457213687.5,49,28,-29,0,0,0,0,0
1565457213718.75,48,27,-29,0,0,0,0,0
1565457213750,51,28,-24,0,0,0,0,0
1565457213781.25,49,27,-25,0,0,0,0,0
1565457213812.5,48,27,-25,0,0,0,0,0
1565457213843.75,47,26,-25,0,0,0,0,0
1565457213875,47,26,-26,0,0,0,0,0
1565457213906.25,49,27,-25,0,0,0,0,0
1565457213937.5,48,28,-26,0,0,0,0,0
1565457213968.75,47,28,-27,0,0,0,0,0
1565457214000,49,28,-29,0,0,0,0,0
1565457214031.25,49,28,-29,0,0,0,0,0
1565457214062.5,50,29,-27,0,0,0,0,0
1565457214093.75,45,27,-30,0,0,0,0,0
1565457214125,45,27,-29,0,0,0,0,0
1565457214156.25,47,27,-27,0,0,0,0,0
1565457214187.5,48,27,-28,0,0,0,0,0
1565457214218.75,50,27,-29,0,0,0,0,0
1565457214250,49,27,-29,0,0,0,0,0
1565457214281.25,46,28,-29,0,0,0,0,0
1565457214312.5,46,28,-29,0,0,0,0,0
1565457214343.75,47,28,-28,0,0,0,0,0
1565457214375,47,28,-28,0,0,0,0,0
1565457214406.25,49,27,-29,0,0,0,0,0
1565457214437.5,48,27,-30,0,0,0,0,0
1565457214468.75,48,27,-28,0,0,0,0,0
1565457214500,47,27,-28,0,0,0,0,0
1565457214531.25,47,27,-29,0,0,0,0,0
1565457214562.5,47,27,-29,0,0,0,0,0
1565457214593.75,46,27,-28,0,0,0,0,0
1565457214625,48,27,-28,0,0,0,0,0
1565457214656.25,48,27,-29,0,0,0,0,0
1565457214687.5,46,27,-29,0,0,0,0,0
1565457214718.75,47,27,-29,0,0,0,0,0
1565457214750,47,28,-29,0,0,0,0,0
1565457214781.25,47,28,-29,0,0,0,0,0
1565457214812.5,47,29,-28,0,0,0,0,0
1565457214843.75,46,29,-28,0,0,0,0,0
1565457214875,47,29,-29,0,0,0,0,0
1565457214906.25,48,29,-30,0,0,0,0,0
1565457214937.5,47,28,-29,0,0,0,0,0
1565457214968.75,46,28,-28,0,0,0,0,0
1565457215000,47,29,-29,0,0,0,0,0
1565457215031.25,46,29,-29,0,0,0,0,0
1565457215062.5,47,28,-29,0,0,0,0,0
1565457215093.75,47,28,-29,0,0,0,0,0
1565457215125,47,28,-29,0,0,0,0,0
1565457215156.25,47,28,-29,0,0,0,0,0
1565457215187.5,46,28,-29,0,0,0,0,0
1565457215218.75,48,28,-29,0,0,0,0,0
1565457215250,47,28,-29,0,0,0,0,0
1565457215281.25,46,29,-27,0,0,0,0,0
1565457215312.5,46,29,-28,0,0,0,0,0
1565457215343.75,47,28,-29,0,0,0,0,0
1565457215375,48,28,-29,0,0,0,0,0
1565457215406.25,47,27,-28,0,0,0,0,0
1565457215437.5,45,28,-28,0,0,0,0,0
1565457215468.75,45,28,-29,0,0,0,0,0
1565457215500,47,29,-29,0,0,0,0,0
1565457215531.25,47,29,-30,0,0,0,0,0
1565457215562.5,46,28,-29,0,0,0,0,0
1565457215593.75,45,28,-28,0,0,0,0,0
1565457215625,44,29,-29,0,0,0,0,0
1565457215656.25,45,29,-29,0,0,0,0,0
1565457215687.5,46,30,-30,0,0,0,0,0
1565457215718.75,47,30,-31,0,0,0,0,0
1565457215750,47,30,-31,0,0,0,0,0
1565457215781.25,47,30,-30,0,0,0,0,0
1565457215812.5,45,29,-29,0,0,0,0,0
1565457215843.75,44,29,-29,0,0,0,0,0
1565457215875,45,28,-32,0,0,0,0,0
1565457215906.25,47,29,-29,0,0,0,0,0
1565457215937.5,48,29,-28,0,0,0,0,0
1565457215968.75,45,28,-37,0,0,0,0,0
1565457216000,42,28,-34,0,0,0,0,0
1565457216031.25,42,26,-34,0,0,0,0,0
1565457216062.5,47,26,-37,0,0,0,0,0
1565457216093.75,44,26,-41,0,0,0,0,0
1565457216125,23,28,-53,0,0,0,0,0
1565457216156.25,51,29,-37,0,0,0,0,0
1565457216187.5,56,29,-40,0,0,0,0,0
1565457216218.75,46,26,-46,0,0,0,0,0
1565457216250,38,24,-47,0,0,0,0,0
1565457216281.25,25,24,-47,0,0,0,0,0
1565457216312.5,37,27,-39,0,0,0,0,0
1565457216343.75,40,28,-34,0,0,0,0,0
1565457216375,37,31,-34,0,0,0,0,0
1565457216406.25,34,33,-33,0,0,0,0,0
1565457216437.5,34,36,-33,0,0,0,0,0
1565457216468.75,35,37,-31,0,0,0,0,0
1565457216500,43,39,-30,0,0,0,0,0
1565457216531.25,43,38,-31,0,0,0,0,0
1565457216562.5,37,38,-29,0,0,0,0,0
1565457216593.75,36,41,-25,0,0,0,0,0
1565457216625,55,40,-33,0,0,0,0,0
1565457216656.25,57,36,-27,0,0,0,0,0
1565457216687.5,38,33,-14,0,0,0,0,0
1565457216718.75,42,43,-17,0,0,0,0,0
1565457216750,48,48,-21,0,0,0,0,0
1565457216781.25,48,43,-25,0,0,0,0,0
1565457216812.5,43,40,-27,0,0,0,0,0
1565457216843.75,42,37,-23,0,0,0,0,0
1565457216875,45,36,-18,0,0,0,0,0
1565457216906.25,41,35,-20,0,0,0,0,0
1565457216937.5,39,34,-23,0,0,0,0,0
1565457216968.75,43,36,-20,0,0,0,0,0
1565457217000,46,36,-20,0,0,0,0,0
1565457217031.25,43,35,-20,0,0,0,0,0
1565457217062.5,43,35,-21,0,0,0,0,0
1565457217093.75,48,35,-21,0,0,0,0,0
1565457217125,47,33,-23,0,0,0,0,0
1565457217156.25,48,33,-25,0,0,0,0,0
1565457217187.5,48,34,-28,0,0,0,0,0
1565457217218.75,48,35,-29,0,0,0,0,0
1565457217250,47,38,-31,0,0,0,0,0
1565457217281.25,48,38,-31,0,0,0,0,0
1565457217312.5,44,43,-31,0,0,0,0,0
1565457217343.75,41,43,-29,0,0,0,0,0
1565457217375,25,42,-26,0,0,0,0,0
1565457217406.25,17,46,-26,0,0,0,0,0
1565457217437.5,27,55,-32,0,0,0,0,0
1565457217468.75,31,55,-36,0,0,0,0,0
1565457217500,33,46,-34,0,0,0,0,0
1565457217531.25,33,42,-26,0,0,0,0,0
1565457217562.5,37,41,-21,0,0,0,0,0
1565457217593.75,43,44,-23,0,0,0,0,0
1565457217625,42,43,-23,0,0,0,0,0
1565457217656.25,34,43,-26,0,0,0,0,0
1565457217687.5,31,44,-28,0,0,0,0,0
1565457217718.75,36,48,-26,0,0,0,0,0
1565457217750,37,50,-21,0,0,0,0,0
1565457217781.25,39,51,-18,0,0,0,0,0
1565457217812.5,37,52,-19,0,0,0,0,0
1565457217843.75,33,52,-21,0,0,0,0,0
1565457217875,37,53,-18,0,0,0,0,0
1565457217906.25,39,49,-12,0,0,0,0,0
1565457217937.5,38,49,-12,0,0,0,0,0
1565457217968.75,38,48,-13,0,0,0,0,0
1565457218000,29,48,-12,0,0,0,0,0
1565457218031.25,27,46,-9,0,0,0,0,0
1565457218062.5,37,50,-11,0,0,0,0,0
1565457218093.75,36,51,-12,0,0,0,0,0
1565457218125,30,54,-12,0,0,0,0,0
1565457218156.25,32,56,-16,0,0,0,0,0
1565457218187.5,37,55,-21,0,0,0,0,0
1565457218218.75,38,50,-23,0,0,0,0,0
1565457218250,35,45,-20,0,0,0,0,0
1565457218281.25,35,44,-19,0,0,0,0,0
1565457218312.5,37,42,-19,0,0,0,0,0
1565457218343.75,37,40,-18,0,0,0,0,0
1565457218375,35,40,-21,0,0,0,0,0
1565457218406.25,34,42,-26,0,0,0,0,0
1565457218437.5,42,45,-31,0,0,0,0,0
1565457218468.75,49,47,-21,0,0,0,0,0
1565457218500,44,47,-15,0,0,0,0,0
1565457218531.25,39,48,-15,0,0,0,0,0
1565457218562.5,37,47,-16,0,0,0,0,0
1565457218593.75,33,47,-18,0,0,0,0,0
1565457218625,34,46,-19,0,0,0,0,0
1565457218656.25,42,45,-21,0,0,0,0,0
1565457218687.5,45,45,-20,0,0,0,0,0
1565457218718.75,40,45,-16,0,0,0,0,0
1565457218750,38,46,-15,0,0,0,0,0
1565457218781.25,39,49,-15,0,0,0,0,0
1565457218812.5,38,50,-17,0,0,0,0,0
1565457218843.75,39,56,-23,0,0,0,0,0
1565457218875,45,56,-29,0,0,0,0,0
1565457218906.25,44,53,-31,0,0,0,0,0
1565457218937.5,39,49,-19,0,0,0,0,0
1565457218968.75,39,46,-10,0,0,0,0,0
1565457219000,34,44,-18,0,0,0,0,0
1565457219031.25,26,44,-24,0,0,0,0,0
1565457219062.5,9,48,-31,0,0,0,0,0
1565457219093.75,18,52,-32,0,0,0,0,0
1565457219125,43,52,-33,0,0,0,0,0
1565457219156.25,42,48,-32,0,0,0,0,0
1565457219187.5,29,41,-27,0,0,0,0,0
1565457219218.75,26,41,-26,0,0,0,0,0
1565457219250,28,44,-22,0,0,0,0,0
1565457219281.25,29,45,-22,0,0,0,0,0
1565457219312.5,26,49,-30,0,0,0,0,0
1565457219343.75,27,47,-31,0,0,0,0,0
1565457219375,29,47,-27,0,0,0,0,0
1565457219406.25,37,48,-25,0,0,0,0,0
1565457219437.5,40,50,-25,0,0,0,0,0
1565457219468.75,32,49,-27,0,0,0,0,0
1565457219500,32,49,-26,0,0,0,0,0
1565457219531.25,38,49,-27,0,0,0,0,0
1565457219562.5,40,48,-29,0,0,0,0,0
1565457219593.75,46,44,-32,0,0,0,0,0
1565457219625,42,37,-28,0,0,0,0,0
1565457219656.25,31,36,-16,0,0,0,0,0
1565457219687.5,35,40,-20,0,0,0,0,0
1565457219718.75,50,41,-35,0,0,0,0,0
1565457219750,49,37,-39,0,0,0,0,0
1565457219781.25,32,37,-31,0,0,0,0,0
1565457219812.5,35,41,-23,0,0,0,0,0
1565457219843.75,39,43,-21,0,0,0,0,0
1565457219875,39,45,-23,0,0,0,0,0
1565457219906.25,35,44,-24,0,0,0,0,0
1565457219937.5,31,41,-23,0,0,0,0,0
1565457219968.75,33,40,-22,0,0,0,0,0
1565457220000,39,41,-19,0,0,0,0,0
1565457220031.25,41,41,-19,0,0,0,0,0
1565457220062.5,39,44,-21,0,0,0,0,0
1565457220093.75,39,46,-24,0,0,0,0,0
1565457220125,44,49,-33,0,0,0,0,0
1565457220156.25,45,52,-37,0,0,0,0,0
1565457220187.5,48,59,-38,0,0,0,0,0
1565457220218.75,40,53,-31,0,0,0,0,0
1565457220250,33,53,-28,0,0,0,0,0
1565457220281.25,32,55,-34,0,0,0,0,0
1565457220312.5,39,53,-39,0,0,0,0,0
1565457220343.75,48,41,-37,0,0,0,0,0
1565457220375,38,35,-30,0,0,0,0,0
1565457220406.25,25,31,-18,0,0,0,0,0
1565457220437.5,27,34,-14,0,0,0,0,0
1565457220468.75,35,40,-13,0,0,0,0,0
1565457220500,33,44,-16,0,0,0,0,0
1565457220531.25,28,49,-15,0,0,0,0,0
1565457220562.5,30,51,-10,0,0,0,0,0
1565457220593.75,28,51,-2,0,0,0,0,0
1565457220625,29,53,-3,0,0,0,0,0
1565457220656.25,28,53,-12,0,0,0,0,0
1565457220687.5,31,57,-11,0,0,0,0,0
1565457220718.75,34,60,-9,0,0,0,0,0
1565457220750,31,51,-8,0,0,0,0,0
1565457220781.25,27,49,-7,0,0,0,0,0
1565457220812.5,45,41,-15,0,0,0,0,0
1565457220843.75,51,41,-9,0,0,0,0,0
1565457220875,36,45,-8,0,0,0,0,0
1565457220906.25,35,49,-16,0,0,0,0,0
1565457220937.5,46,47,-26,0,0,0,0,0
1565457220968.75,47,46,-24,0,0,0,0,0
1565457221000,38,43,-16,0,0,0,0,0
1565457221031.25,32,43,-14,0,0,0,0,0
1565457221062.5,33,47,-14,0,0,0,0,0
1565457221093.75,37,46,-13,0,0,0,0,0
1565457221125,35,45,-15,0,0,0,0,0
1565457221156.25,29,40,-21,0,0,0,0,0
1565457221187.5,30,39,-20,0,0,0,0,0
1565457221218.75,35,39,-17,0,0,0,0,0
