Timestamp,ACC_X,ACC_Y,ACC_Z,Note,AGG,ED,SIB,Condition
1573491256000,-44,9,27,0,0,0,0,0
1573491256031.25,-45,9,28,0,0,0,0,0
1573491256062.5,-50,10,31,0,0,0,0,0
1573491256093.75,-64,16,37,0,0,0,0,0
1573491256125,-68,19,45,0,0,0,0,0
1573491256156.25,-68,20,47,0,0,0,0,0
1573491256187.5,-84,26,37,0,0,0,0,0
1573491256218.75,-92,30,27,0,0,0,0,0
1573491256250,-82,30,17,0,0,0,0,0
1573491256281.25,-65,32,15,0,0,0,0,0
1573491256312.5,-45,30,17,0,0,0,0,0
1573491256343.75,-40,30,20,0,0,0,0,0
1573491256375,-37,28,21,0,0,0,0,0
1573491256406.25,-36,27,18,0,0,0,0,0
1573491256437.5,-33,23,17,0,0,0,0,0
1573491256468.75,-33,21,18,0,0,0,0,0
1573491256500,-39,17,19,0,0,0,0,0
1573491256531.25,-46,14,24,0,0,0,0,0
1573491256562.5,-51,13,25,0,0,0,0,0
1573491256593.75,-64,17,30,0,0,0,0,0
1573491256625,-68,16,33,0,0,0,0,0
1573491256656.25,-70,16,28,0,0,0,0,0
1573491256687.5,-67,17,27,0,0,0,0,0
1573491256718.75,-60,25,30,0,0,0,0,0
1573491256750,-51,25,38,0,0,0,0,0
1573491256781.25,-65,23,42,0,0,0,0,0
1573491256812.5,-71,23,35,0,0,0,0,0
1573491256843.75,-65,19,19,0,0,0,0,0
1573491256875,-61,14,17,0,0,0,0,0
1573491256906.25,-67,10,13,0,0,0,0,0
1573491256937.5,-64,11,7,0,0,0,0,0
1573491256968.75,-56,10,7,0,0,0,0,0
1573491257000,-43,12,11,0,0,0,0,0
1573491257031.25,-39,12,14,0,0,0,0,0
1573491257062.5,-37,12,21,0,0,0,0,0
1573491257093.75,-38,11,24,0,0,0,0,0
1573491257125,-42,11,27,0,0,0,0,0
1573491257156.25,-43,11,26,0,0,0,0,0
1573491257187.5,-46,10,25,0,0,0,0,0
1573491257218.75,-52,10,25,0,0,0,0,0
1573491257250,-70,15,33,0,0,0,0,0
1573491257281.25,-74,17,36,0,0,0,0,0
1573491257312.5,-74,19,37,0,0,0,0,0
1573491257343.75,-80,22,28,0,0,0,0,0
1573491257375,-86,26,25,0,0,0,0,0
1573491257406.25,-78,31,22,0,0,0,0,0
1573491257437.5,-65,28,19,0,0,0,0,0
1573491257468.75,-45,25,18,0,0,0,0,0
1573491257500,-40,24,19,0,0,0,0,0
1573491257531.25,-36,21,17,0,0,0,0,0
1573491257562.5,-39,19,16,0,0,0,0,0
1573491257593.75,-47,18,13,0,0,0,0,0
1573491257625,-50,18,12,0,0,0,0,0
1573491257656.25,-55,18,16,0,0,0,0,0
1573491257687.5,-53,18,22,0,0,0,0,0
1573491257718.75,-48,17,35,0,0,0,0,0
1573491257750,-51,14,38,0,0,0,0,0
1573491257781.25,-57,12,31,0,0,0,0,0
1573491257812.5,-62,14,23,0,0,0,0,0
1573491257843.75,-60,15,25,0,0,0,0,0
1573491257875,-78,18,26,0,0,0,0,0
1573491257906.25,-89,27,26,0,0,0,0,0
1573491257937.5,-74,15,14,0,0,0,0,0
1573491257968.75,-62,10,13,0,0,0,0,0
1573491258000,-62,7,13,0,0,0,0,0
1573491258031.25,-63,9,11,0,0,0,0,0
1573491258062.5,-58,11,8,0,0,0,0,0
1573491258093.75,-52,11,8,0,0,0,0,0
1573491258125,-44,10,12,0,0,0,0,0
1573491258156.25,-46,8,16,0,0,0,0,0
1573491258187.5,-50,8,16,0,0,0,0,0
1573491258218.75,-57,13,19,0,0,0,0,0
1573491258250,-61,18,21,0,0,0,0,0
1573491258281.25,-57,24,30,0,0,0,0,0
1573491258312.5,-55,25,36,0,0,0,0,0
1573491258343.75,-50,22,41,0,0,0,0,0
1573491258375,-51,18,38,0,0,0,0,0
1573491258406.25,-56,13,29,0,0,0,0,0
1573491258437.5,-61,12,23,0,0,0,0,0
1573491258468.75,-75,20,14,0,0,0,0,0
1573491258500,-83,26,14,0,0,0,0,0
1573491258531.25,-70,30,22,0,0,0,0,0
1573491258562.5,-56,23,22,0,0,0,0,0
1573491258593.75,-52,22,20,0,0,0,0,0
1573491258625,-43,23,16,0,0,0,0,0
1573491258656.25,-40,22,15,0,0,0,0,0
1573491258687.5,-45,26,18,0,0,0,0,0
1573491258718.75,-48,29,21,0,0,0,0,0
1573491258750,-49,25,23,0,0,0,0,0
1573491258781.25,-51,24,23,0,0,0,0,0
1573491258812.5,-52,22,28,0,0,0,0,0
1573491258843.75,-52,22,29,0,0,0,0,0
1573491258875,-53,21,29,0,0,0,0,0
1573491258906.25,-54,21,28,0,0,0,0,0
1573491258937.5,-56,20,26,0,0,0,0,0
1573491258968.75,-59,22,21,0,0,0,0,0
1573491259000,-58,24,21,0,0,0,0,0
1573491259031.25,-71,32,18,0,0,0,0,0
1573491259062.5,-68,37,19,0,0,0,0,0
1573491259093.75,-53,31,24,0,0,0,0,0
1573491259125,-52,28,27,0,0,0,0,0
1573491259156.25,-57,25,17,0,0,0,0,0
1573491259187.5,-58,25,8,0,0,0,0,0
1573491259218.75,-52,26,-1,0,0,0,0,0
1573491259250,-54,27,-2,0,0,0,0,0
1573491259281.25,-54,28,-3,0,0,0,0,0
1573491259312.5,-34,32,5,0,0,0,0,0
1573491259343.75,-32,32,7,0,0,0,0,0
1573491259375,-63,25,-11,0,0,0,0,0
1573491259406.25,-62,16,-12,0,0,0,0,0
1573491259437.5,-62,7,-20,0,0,0,0,0
1573491259468.75,-56,5,-24,0,0,0,0,0
1573491259500,-46,10,-22,0,0,0,0,0
1573491259531.25,-45,12,-22,0,0,0,0,0
1573491259562.5,-42,14,-23,0,0,0,0,0
1573491259593.75,-37,13,-20,0,0,0,0,0
1573491259625,5,-8,-9,0,0,0,0,0
1573491259656.25,19,-28,-10,0,0,0,0,0
1573491259687.5,-25,31,-17,0,0,0,0,0
1573491259718.75,-40,62,-33,0,0,0,0,0
1573491259750,-70,75,-52,0,0,0,0,0
1573491259781.25,-92,52,-11,0,0,0,0,0
1573491259812.5,-87,30,-10,0,0,0,0,0
1573491259843.75,-81,29,-25,0,0,0,0,0
1573491259875,-88,40,-33,0,0,0,0,0
1573491259906.25,-118,61,-35,0,0,0,0,0
1573491259937.5,-92,57,-19,0,0,0,0,0
1573491259968.75,-56,71,21,0,0,0,0,0
1573491260000,-50,50,-3,0,0,0,0,0
1573491260031.25,-7,48,10,0,0,0,0,0
1573491260062.5,-37,38,-6,0,0,0,0,0
1573491260093.75,-90,58,-25,0,0,0,0,0
1573491260125,-98,54,-33,0,0,0,0,0
1573491260156.25,-43,28,-28,0,0,0,0,0
1573491260187.5,-58,8,5,0,0,0,0,0
1573491260218.75,-64,9,5,0,0,0,0,0
1573491260250,-66,12,-15,0,0,0,0,0
1573491260281.25,-78,18,-15,0,0,0,0,0
1573491260312.5,-54,7,1,0,0,0,0,0
1573491260343.75,-56,1,3,0,0,0,0,0
1573491260375,-54,13,9,0,0,0,0,0
1573491260406.25,-69,21,-3,0,0,0,0,0
1573491260437.5,-84,38,-25,0,0,0,0,0
1573491260468.75,-78,35,-16,0,0,0,0,0
1573491260500,-72,13,9,0,0,0,0,0
1573491260531.25,-70,0,16,0,0,0,0,0
1573491260562.5,-59,4,22,0,0,0,0,0
1573491260593.75,-59,13,10,0,0,0,0,0
1573491260625,-59,19,2,0,0,0,0,0
1573491260656.25,-59,21,3,0,0,0,0,0
1573491260687.5,-56,18,10,0,0,0,0,0
1573491260718.75,-52,10,21,0,0,0,0,0
1573491260750,-50,8,22,0,0,0,0,0
1573491260781.25,-42,3,16,0,0,0,0,0
1573491260812.5,-33,-2,8,0,0,0,0,0
1573491260843.75,-41,10,7,0,0,0,0,0
1573491260875,-54,15,5,0,0,0,0,0
1573491260906.25,-50,14,50,0,0,0,0,0
1573491260937.5,-94,33,13,0,0,0,0,0
1573491260968.75,-77,25,14,0,0,0,0,0
1573491261000,-59,16,25,0,0,0,0,0
1573491261031.25,-52,10,23,0,0,0,0,0
1573491261062.5,-43,7,16,0,0,0,0,0
1573491261093.75,-41,9,11,0,0,0,0,0
1573491261125,-41,12,5,0,0,0,0,0
1573491261156.25,-46,13,1,0,0,0,0,0
1573491261187.5,-60,15,-6,0,0,0,0,0
1573491261218.75,-73,15,-10,0,0,0,0,0
1573491261250,-90,12,-16,0,0,0,0,0
1573491261281.25,-86,12,-17,0,0,0,0,0
1573491261312.5,-76,17,-16,0,0,0,0,0
1573491261343.75,-68,17,-15,0,0,0,0,0
1573491261375,-56,19,-11,0,0,0,0,0
1573491261406.25,-51,19,-7,0,0,0,0,0
1573491261437.5,-55,18,-7,0,0,0,0,0
1573491261468.75,-60,17,-11,0,0,0,0,0
1573491261500,-63,18,-14,0,0,0,0,0
1573491261531.25,-63,17,-18,0,0,0,0,0
1573491261562.5,-61,17,-18,0,0,0,0,0
1573491261593.75,-58,15,-16,0,0,0,0,0
1573491261625,-58,16,-16,0,0,0,0,0
1573491261656.25,-61,16,-16,0,0,0,0,0
1573491261687.5,-60,17,-14,0,0,0,0,0
1573491261718.75,-59,19,-12,0,0,0,0,0
1573491261750,-61,20,-12,0,0,0,0,0
1573491261781.25,-60,19,-13,0,0,0,0,0
1573491261812.5,-58,18,-13,0,0,0,0,0
1573491261843.75,-58,17,-13,0,0,0,0,0
1573491261875,-59,19,-13,0,0,0,0,0
1573491261906.25,-60,19,-13,0,0,0,0,0
1573491261937.5,-60,21,-13,0,0,0,0,0
1573491261968.75,-59,22,-12,0,0,0,0,0
1573491262000,-60,22,-12,0,0,0,0,0
1573491262031.25,-59,22,-11,0,0,0,0,0
1573491262062.5,-59,21,-10,0,0,0,0,0
1573491262093.75,-59,21,-11,0,0,0,0,0
1573491262125,-59,20,-12,0,0,0,0,0
1573491262156.25,-60,19,-13,0,0,0,0,0
1573491262187.5,-60,19,-14,0,0,0,0,0
1573491262218.75,-59,18,-15,0,0,0,0,0
1573491262250,-59,19,-15,0,0,0,0,0
1573491262281.25,-59,19,-14,0,0,0,0,0
1573491262312.5,-59,19,-13,0,0,0,0,0
1573491262343.75,-59,19,-13,0,0,0,0,0
1573491262375,-59,19,-12,0,0,0,0,0
1573491262406.25,-59,19,-12,0,0,0,0,0
1573491262437.5,-59,20,-12,0,0,0,0,0
1573491262468.75,-59,21,-13,0,0,0,0,0
1573491262500,-59,21,-13,0,0,0,0,0
1573491262531.25,-59,20,-13,0,0,0,0,0
1573491262562.5,-59,20,-14,0,0,0,0,0
1573491262593.75,-59,19,-13,0,0,0,0,0
1573491262625,-59,19,-13,0,0,0,0,0
1573491262656.25,-59,19,-13,0,0,0,0,0
1573491262687.5,-59,20,-13,0,0,0,0,0
1573491262718.75,-59,20,-13,0,0,0,0,0
1573491262750,-59,20,-13,0,0,0,0,0
1573491262781.25,-59,20,-13,0,0,0,0,0
1573491262812.5,-59,20,-13,0,0,0,0,0
1573491262843.75,-59,20,-13,0,0,0,0,0
1573491262875,-59,20,-13,0,0,0,0,0
1573491262906.25,-59,20,-13,0,0,0,0,0
1573491262937.5,-59,20,-12,0,0,0,0,0
1573491262968.75,-59,20,-12,0,0,0,0,0
1573491263000,-59,20,-13,0,0,0,0,0
1573491263031.25,-59,19,-14,0,0,0,0,0
1573491263062.5,-59,19,-14,0,0,0,0,0
1573491263093.75,-59,19,-13,0,0,0,0,0
1573491263125,-59,19,-13,0,0,0,0,0
1573491263156.25,-59,19,-13,0,0,0,0,0
1573491263187.5,-59,19,-13,0,0,0,0,0
1573491263218.75,-59,19,-13,0,0,0,0,0
1573491263250,-59,19,-13,0,0,0,0,0
1573491263281.25,-60,20,-13,0,0,0,0,0
1573491263312.5,-59,20,-14,0,0,0,0,0
1573491263343.75,-59,20,-13,0,0,0,0,0
1573491263375,-59,20,-13,0,0,0,0,0
1573491263406.25,-59,20,-13,0,0,0,0,0
1573491263437.5,-59,19,-13,0,0,0,0,0
1573491263468.75,-59,20,-13,0,0,0,0,0
1573491263500,-59,19,-13,0,0,0,0,0
1573491263531.25,-59,19,-14,0,0,0,0,0
1573491263562.5,-59,19,-13,0,0,0,0,0
1573491263593.75,-59,19,-13,0,0,0,0,0
1573491263625,-59,19,-14,0,0,0,0,0
1573491263656.25,-59,19,-14,0,0,0,0,0
1573491263687.5,-59,19,-13,0,0,0,0,0
1573491263718.75,-59,19,-14,0,0,0,0,0
1573491263750,-59,19,-14,0,0,0,0,0
1573491263781.25,-59,19,-14,0,0,0,0,0
1573491263812.5,-59,20,-14,0,0,0,0,0
1573491263843.75,-59,20,-14,0,0,0,0,0
1573491263875,-59,19,-14,0,0,0,0,0
1573491263906.25,-59,20,-14,0,0,0,0,0
1573491263937.5,-59,20,-14,0,0,0,0,0
1573491263968.75,-59,20,-14,0,0,0,0,0
1573491264000,-59,19,-14,0,0,0,0,0
1573491264031.25,-59,19,-14,0,0,0,0,0
1573491264062.5,-59,19,-14,0,0,0,0,0
1573491264093.75,-59,19,-14,0,0,0,0,0
1573491264125,-59,19,-14,0,0,0,0,0
1573491264156.25,-59,19,-14,0,0,0,0,0
1573491264187.5,-59,20,-14,0,0,0,0,0
1573491264218.75,-59,20,-14,0,0,0,0,0
1573491264250,-59,20,-14,0,0,0,0,0
1573491264281.25,-59,20,-14,0,0,0,0,0
1573491264312.5,-59,20,-14,0,0,0,0,0
1573491264343.75,-59,20,-14,0,0,0,0,0
1573491264375,-59,20,-14,0,0,0,0,0
1573491264406.25,-59,20,-14,0,0,0,0,0
1573491264437.5,-59,19,-14,0,0,0,0,0
1573491264468.75,-59,19,-14,0,0,0,0,0
1573491264500,-59,19,-14,0,0,0,0,0
1573491264531.25,-59,19,-14,0,0,0,0,0
1573491264562.5,-59,20,-14,0,0,0,0,0
1573491264593.75,-59,20,-14,0,0,0,0,0
1573491264625,-59,20,-14,0,0,0,0,0
1573491264656.25,-59,20,-14,0,0,0,0,0
1573491264687.5,-59,20,-14,0,0,0,0,0
1573491264718.75,-59,20,-14,0,0,0,0,0
1573491264750,-59,20,-14,0,0,0,0,0
1573491264781.25,-59,20,-14,0,0,0,0,0
1573491264812.5,-59,20,-14,0,0,0,0,0
1573491264843.75,-59,20,-14,0,0,0,0,0
1573491264875,-59,20,-14,0,0,0,0,0
1573491264906.25,-59,20,-14,0,0,0,0,0
1573491264937.5,-59,19,-14,0,0,0,0,0
1573491264968.75,-59,20,-14,0,0,0,0,0
1573491265000,-59,20,-14,0,0,0,0,0
1573491265031.25,-59,20,-14,0,0,0,0,0
1573491265062.5,-59,20,-14,0,0,0,0,0
1573491265093.75,-59,20,-14,0,0,0,0,0
1573491265125,-59,20,-15,0,0,0,0,0
1573491265156.25,-59,20,-14,0,0,0,0,0
1573491265187.5,-60,20,-14,0,0,0,0,0
1573491265218.75,-60,21,-14,0,0,0,0,0
1573491265250,-59,21,-13,0,0,0,0,0
1573491265281.25,-60,21,-14,0,0,0,0,0
1573491265312.5,-61,20,-17,0,0,0,0,0
1573491265343.75,-59,19,-15,0,0,0,0,0
1573491265375,-59,16,-13,0,0,0,0,0
1573491265406.25,-60,15,-14,0,0,0,0,0
1573491265437.5,-58,13,-14,0,0,0,0,0
1573491265468.75,-59,15,-14,0,0,0,0,0
1573491265500,-60,15,-15,0,0,0,0,0
1573491265531.25,-63,16,-16,0,0,0,0,0
1573491265562.5,-62,16,-14,0,0,0,0,0
1573491265593.75,-62,17,-11,0,0,0,0,0
1573491265625,-61,17,-10,0,0,0,0,0
1573491265656.25,-61,17,-7,0,0,0,0,0
1573491265687.5,-63,18,-7,0,0,0,0,0
1573491265718.75,-62,17,-6,0,0,0,0,0
1573491265750,-59,16,-4,0,0,0,0,0
1573491265781.25,-61,16,-4,0,0,0,0,0
1573491265812.5,-63,16,-3,0,0,0,0,0
1573491265843.75,-61,16,1,0,0,0,0,0
1573491265875,-63,18,1,0,0,0,0,0
1573491265906.25,-61,17,6,0,0,0,0,0
1573491265937.5,-61,18,10,0,0,0,0,0
1573491265968.75,-61,16,10,0,0,0,0,0
1573491266000,-63,14,4,0,0,0,0,0
1573491266031.25,-68,12,0,0,0,0,0,0
1573491266062.5,-78,16,1,0,0,0,0,0
1573491266093.75,-71,17,12,0,0,0,0,0
1573491266125,-54,20,25,0,0,0,0,0
1573491266156.25,-50,20,28,0,0,0,0,0
1573491266187.5,-48,19,30,0,0,0,0,0
1573491266218.75,-51,17,34,0,0,0,0,0
1573491266250,-50,11,37,0,0,0,0,0
1573491266281.25,-38,9,29,0,0,0,0,0
1573491266312.5,-47,9,37,0,0,0,0,0
1573491266343.75,-41,6,37,0,0,0,0,0
1573491266375,-46,8,31,0,0,0,0,0
1573491266406.25,-56,3,29,0,0,0,0,0
1573491266437.5,-52,3,35,0,0,0,0,0
1573491266468.75,-52,3,38,0,0,0,0,0
1573491266500,-50,4,39,0,0,0,0,0
1573491266531.25,-50,11,38,0,0,0,0,0
1573491266562.5,-53,11,31,0,0,0,0,0
1573491266593.75,-40,13,37,0,0,0,0,0
1573491266625,-40,11,40,0,0,0,0,0
1573491266656.25,-43,13,38,0,0,0,0,0
1573491266687.5,-57,19,44,0,0,0,0,0
1573491266718.75,-58,21,48,0,0,0,0,0
1573491266750,-40,17,53,0,0,0,0,0
1573491266781.25,-37,16,55,0,0,0,0,0
1573491266812.5,-38,13,51,0,0,0,0,0
1573491266843.75,-30,13,54,0,0,0,0,0
1573491266875,-34,15,53,0,0,0,0,0
1573491266906.25,-37,16,53,0,0,0,0,0
1573491266937.5,-32,17,53,0,0,0,0,0
1573491266968.75,-34,18,51,0,0,0,0,0
1573491267000,-37,18,47,0,0,0,0,0
1573491267031.25,-36,19,47,0,0,0,0,0
1573491267062.5,-33,19,48,0,0,0,0,0
1573491267093.75,-28,19,52,0,0,0,0,0
1573491267125,-27,20,52,0,0,0,0,0
1573491267156.25,-27,19,50,0,0,0,0,0
1573491267187.5,-29,18,47,0,0,0,0,0
1573491267218.75,-30,18,51,0,0,0,0,0
1573491267250,-29,20,56,0,0,0,0,0
1573491267281.25,-29,19,57,0,0,0,0,0
1573491267312.5,-29,17,55,0,0,0,0,0
1573491267343.75,-28,14,51,0,0,0,0,0
1573491267375,-29,13,52,0,0,0,0,0
1573491267406.25,-33,12,58,0,0,0,0,0
1573491267437.5,-33,11,59,0,0,0,0,0
1573491267468.75,-27,9,58,0,0,0,0,0
1573491267500,-28,10,53,0,0,0,0,0
1573491267531.25,-33,12,55,0,0,0,0,0
1573491267562.5,-34,14,54,0,0,0,0,0
1573491267593.75,-30,12,54,0,0,0,0,0
1573491267625,-23,9,51,0,0,0,0,0
1573491267656.25,-27,11,53,0,0,0,0,0
1573491267687.5,-34,15,59,0,0,0,0,0
1573491267718.75,-33,13,59,0,0,0,0,0
1573491267750,-30,11,57,0,0,0,0,0
1573491267781.25,-27,11,56,0,0,0,0,0
1573491267812.5,-23,11,57,0,0,0,0,0
1573491267843.75,-17,10,61,0,0,0,0,0
1573491267875,-13,10,63,0,0,0,0,0
1573491267906.25,-10,11,63,0,0,0,0,0
1573491267937.5,-9,11,63,0,0,0,0,0
1573491267968.75,-18,13,60,0,0,0,0,0
1573491268000,-23,13,58,0,0,0,0,0
1573491268031.25,-26,13,59,0,0,0,0,0
1573491268062.5,-26,14,61,0,0,0,0,0
1573491268093.75,-26,14,61,0,0,0,0,0
1573491268125,-25,14,60,0,0,0,0,0
1573491268156.25,-26,14,55,0,0,0,0,0
1573491268187.5,-27,13,54,0,0,0,0,0
1573491268218.75,-28,13,54,0,0,0,0,0
1573491268250,-30,13,57,0,0,0,0,0
1573491268281.25,-29,13,57,0,0,0,0,0
1573491268312.5,-29,13,55,0,0,0,0,0
1573491268343.75,-29,13,55,0,0,0,0,0
1573491268375,-29,13,54,0,0,0,0,0
1573491268406.25,-28,13,55,0,0,0,0,0
1573491268437.5,-30,13,56,0,0,0,0,0
1573491268468.75,-31,13,55,0,0,0,0,0
1573491268500,-31,13,55,0,0,0,0,0
1573491268531.25,-31,13,55,0,0,0,0,0
1573491268562.5,-29,13,55,0,0,0,0,0
1573491268593.75,-30,14,55,0,0,0,0,0
1573491268625,-31,13,54,0,0,0,0,0
1573491268656.25,-30,13,54,0,0,0,0,0
1573491268687.5,-31,13,55,0,0,0,0,0
1573491268718.75,-32,13,55,0,0,0,0,0
1573491268750,-33,13,56,0,0,0,0,0
1573491268781.25,-34,14,61,0,0,0,0,0
1573491268812.5,-31,13,59,0,0,0,0,0
1573491268843.75,-22,10,48,0,0,0,0,0
1573491268875,-20,10,47,0,0,0,0,0
1573491268906.25,-26,14,50,0,0,0,0,0
1573491268937.5,-29,15,53,0,0,0,0,0
1573491268968.75,-34,19,60,0,0,0,0,0
1573491269000,-39,18,58,0,0,0,0,0
1573491269031.25,-38,14,54,0,0,0,0,0
1573491269062.5,-36,11,50,0,0,0,0,0
1573491269093.75,-33,9,46,0,0,0,0,0
1573491269125,-40,9,50,0,0,0,0,0
1573491269156.25,-44,9,50,0,0,0,0,0
1573491269187.5,-45,9,43,0,0,0,0,0
1573491269218.75,-45,10,40,0,0,0,0,0
1573491269250,-43,13,43,0,0,0,0,0
1573491269281.25,-43,16,48,0,0,0,0,0
1573491269312.5,-39,16,51,0,0,0,0,0
1573491269343.75,-38,16,50,0,0,0,0,0
1573491269375,-37,16,50,0,0,0,0,0
1573491269406.25,-37,16,49,0,0,0,0,0
1573491269437.5,-38,14,47,0,0,0,0,0
1573491269468.75,-39,13,46,0,0,0,0,0
1573491269500,-42,12,46,0,0,0,0,0
1573491269531.25,-41,11,46,0,0,0,0,0
1573491269562.5,-42,12,46,0,0,0,0,0
1573491269593.75,-42,11,46,0,0,0,0,0
1573491269625,-44,12,45,0,0,0,0,0
1573491269656.25,-45,13,43,0,0,0,0,0
1573491269687.5,-46,13,43,0,0,0,0,0
1573491269718.75,-46,14,44,0,0,0,0,0
1573491269750,-45,14,45,0,0,0,0,0
1573491269781.25,-43,14,45,0,0,0,0,0
1573491269812.5,-42,15,45,0,0,0,0,0
1573491269843.75,-43,14,44,0,0,0,0,0
1573491269875,-44,14,43,0,0,0,0,0
1573491269906.25,-45,13,42,0,0,0,0,0
1573491269937.5,-47,12,41,0,0,0,0,0
1573491269968.75,-47,12,41,0,0,0,0,0
1573491270000,-44,12,41,0,0,0,0,0
1573491270031.25,-43,11,41,0,0,0,0,0
1573491270062.5,-48,13,43,0,0,0,0,0
1573491270093.75,-47,13,43,0,0,0,0,0
1573491270125,-45,12,42,0,0,0,0,0
1573491270156.25,-44,12,42,0,0,0,0,0
1573491270187.5,-46,13,42,0,0,0,0,0
1573491270218.75,-48,14,42,0,0,0,0,0
1573491270250,-48,14,41,0,0,0,0,0
1573491270281.25,-49,14,40,0,0,0,0,0
1573491270312.5,-48,13,40,0,0,0,0,0
1573491270343.75,-47,12,40,0,0,0,0,0
1573491270375,-47,13,41,0,0,0,0,0
1573491270406.25,-47,13,42,0,0,0,0,0
1573491270437.5,-46,13,42,0,0,0,0,0
1573491270468.75,-45,13,39,0,0,0,0,0
1573491270500,-46,12,38,0,0,0,0,0
1573491270531.25,-47,14,42,0,0,0,0,0
1573491270562.5,-47,14,44,0,0,0,0,0
1573491270593.75,-44,14,45,0,0,0,0,0
1573491270625,-47,14,41,0,0,0,0,0
1573491270656.25,-41,15,43,0,0,0,0,0
1573491270687.5,-50,15,41,0,0,0,0,0
1573491270718.75,-48,13,39,0,0,0,0,0
1573491270750,-44,15,44,0,0,0,0,0
1573491270781.25,-40,15,49,0,0,0,0,0
1573491270812.5,-38,14,50,0,0,0,0,0
1573491270843.75,-39,14,48,0,0,0,0,0
1573491270875,-43,15,45,0,0,0,0,0
1573491270906.25,-42,14,46,0,0,0,0,0
1573491270937.5,-41,13,47,0,0,0,0,0
1573491270968.75,-42,14,46,0,0,0,0,0
1573491271000,-39,15,48,0,0,0,0,0
1573491271031.25,-41,17,49,0,0,0,0,0
1573491271062.5,-46,16,43,0,0,0,0,0
1573491271093.75,-44,15,40,0,0,0,0,0
1573491271125,-45,15,40,0,0,0,0,0
1573491271156.25,-43,13,41,0,0,0,0,0
1573491271187.5,-43,13,40,0,0,0,0,0
1573491271218.75,-40,10,45,0,0,0,0,0
1573491271250,-38,11,48,0,0,0,0,0
1573491271281.25,-42,15,51,0,0,0,0,0
1573491271312.5,-40,15,51,0,0,0,0,0
1573491271343.75,-38,16,45,0,0,0,0,0
1573491271375,-35,16,45,0,0,0,0,0
1573491271406.25,-39,17,51,0,0,0,0,0
1573491271437.5,-41,16,50,0,0,0,0,0
1573491271468.75,-40,13,45,0,0,0,0,0
1573491271500,-49,17,59,0,0,0,0,0
1573491271531.25,-83,18,36,0,0,0,0,0
1573491271562.5,-28,20,50,0,0,0,0,0
1573491271593.75,-32,17,35,0,0,0,0,0
1573491271625,-45,16,10,0,0,0,0,0
1573491271656.25,-54,18,7,0,0,0,0,0
1573491271687.5,-65,14,21,0,0,0,0,0
1573491271718.75,-63,10,31,0,0,0,0,0
1573491271750,-42,12,59,0,0,0,0,0
1573491271781.25,-34,15,66,0,0,0,0,0
1573491271812.5,-35,18,69,0,0,0,0,0
1573491271843.75,-36,18,66,0,0,0,0,0
1573491271875,-26,9,49,0,0,0,0,0
1573491271906.25,-22,6,42,0,0,0,0,0
1573491271937.5,-21,8,43,0,0,0,0,0
1573491271968.75,-29,11,46,0,0,0,0,0
1573491272000,-31,15,52,0,0,0,0,0
1573491272031.25,-32,17,57,0,0,0,0,0
1573491272062.5,-33,16,55,0,0,0,0,0
1573491272093.75,-37,16,53,0,0,0,0,0
1573491272125,-37,17,56,0,0,0,0,0
1573491272156.25,-32,18,58,0,0,0,0,0
1573491272187.5,-26,14,55,0,0,0,0,0
1573491272218.75,-32,12,52,0,0,0,0,0
1573491272250,-30,12,54,0,0,0,0,0
1573491272281.25,-26,9,54,0,0,0,0,0
1573491272312.5,-38,9,51,0,0,0,0,0
1573491272343.75,-43,11,51,0,0,0,0,0
1573491272375,-52,18,51,0,0,0,0,0
1573491272406.25,-51,19,46,0,0,0,0,0
1573491272437.5,-41,19,43,0,0,0,0,0
1573491272468.75,-35,17,42,0,0,0,0,0
1573491272500,-37,14,48,0,0,0,0,0
1573491272531.25,-39,14,51,0,0,0,0,0
1573491272562.5,-41,12,46,0,0,0,0,0
1573491272593.75,-40,11,43,0,0,0,0,0
1573491272625,-39,9,45,0,0,0,0,0
1573491272656.25,-41,11,48,0,0,0,0,0
1573491272687.5,-43,13,46,0,0,0,0,0
1573491272718.75,-46,16,48,0,0,0,0,0
1573491272750,-50,19,48,0,0,0,0,0
1573491272781.25,-41,17,45,0,0,0,0,0
1573491272812.5,-29,13,49,0,0,0,0,0
1573491272843.75,-31,11,54,0,0,0,0,0
1573491272875,-32,10,56,0,0,0,0,0
1573491272906.25,-33,8,57,0,0,0,0,0
1573491272937.5,-33,9,56,0,0,0,0,0
1573491272968.75,-29,10,59,0,0,0,0,0
1573491273000,-27,8,58,0,0,0,0,0
1573491273031.25,-26,7,55,0,0,0,0,0
1573491273062.5,-26,7,54,0,0,0,0,0
1573491273093.75,-31,8,54,0,0,0,0,0
1573491273125,-28,9,57,0,0,0,0,0
1573491273156.25,-27,9,57,0,0,0,0,0
1573491273187.5,-26,9,58,0,0,0,0,0
1573491273218.75,-25,8,58,0,0,0,0,0
1573491273250,-27,9,58,0,0,0,0,0
1573491273281.25,-30,9,57,0,0,0,0,0
1573491273312.5,-38,11,58,0,0,0,0,0
1573491273343.75,-30,9,60,0,0,0,0,0
1573491273375,-15,3,58,0,0,0,0,0
1573491273406.25,-10,2,60,0,0,0,0,0
1573491273437.5,-7,0,62,0,0,0,0,0
1573491273468.75,-12,0,61,0,0,0,0,0
1573491273500,-21,1,60,0,0,0,0,0
1573491273531.25,-23,1,61,0,0,0,0,0
1573491273562.5,-22,1,58,0,0,0,0,0
1573491273593.75,-26,3,55,0,0,0,0,0
1573491273625,-28,5,56,0,0,0,0,0
1573491273656.25,-28,7,60,0,0,0,0,0
1573491273687.5,-26,6,59,0,0,0,0,0
1573491273718.75,-25,4,57,0,0,0,0,0
1573491273750,-27,4,59,0,0,0,0,0
1573491273781.25,-35,6,60,0,0,0,0,0
1573491273812.5,-28,3,59,0,0,0,0,0
1573491273843.75,-13,-1,59,0,0,0,0,0
1573491273875,-12,0,59,0,0,0,0,0
1573491273906.25,-19,0,59,0,0,0,0,0
1573491273937.5,-24,3,60,0,0,0,0,0
1573491273968.75,-24,3,60,0,0,0,0,0
1573491274000,-23,2,60,0,0,0,0,0
1573491274031.25,-21,2,60,0,0,0,0,0
1573491274062.5,-23,2,60,0,0,0,0,0
1573491274093.75,-25,2,60,0,0,0,0,0
1573491274125,-24,3,60,0,0,0,0,0
1573491274156.25,-24,3,60,0,0,0,0,0
1573491274187.5,-23,3,59,0,0,0,0,0
1573491274218.75,-23,4,60,0,0,0,0,0
1573491274250,-24,3,60,0,0,0,0,0
1573491274281.25,-24,3,60,0,0,0,0,0
1573491274312.5,-24,2,59,0,0,0,0,0
1573491274343.75,-23,3,60,0,0,0,0,0
1573491274375,-25,3,59,0,0,0,0,0
1573491274406.25,-25,4,60,0,0,0,0,0
1573491274437.5,-24,3,59,0,0,0,0,0
1573491274468.75,-24,3,59,0,0,0,0,0
1573491274500,-25,4,59,0,0,0,0,0
1573491274531.25,-26,4,60,0,0,0,0,0
1573491274562.5,-24,4,60,0,0,0,0,0
1573491274593.75,-22,2,59,0,0,0,0,0
1573491274625,-22,1,59,0,0,0,0,0
1573491274656.25,-24,2,59,0,0,0,0,0
1573491274687.5,-24,3,60,0,0,0,0,0
1573491274718.75,-24,2,59,0,0,0,0,0
1573491274750,-24,3,60,0,0,0,0,0
1573491274781.25,-25,3,59,0,0,0,0,0
1573491274812.5,-24,3,59,0,0,0,0,0
1573491274843.75,-22,2,60,0,0,0,0,0
1573491274875,-21,2,60,0,0,0,0,0
1573491274906.25,-23,2,60,0,0,0,0,0
1573491274937.5,-24,3,59,0,0,0,0,0
1573491274968.75,-24,3,60,0,0,0,0,0
1573491275000,-24,2,59,0,0,0,0,0
1573491275031.25,-23,2,59,0,0,0,0,0
1573491275062.5,-24,3,60,0,0,0,0,0
1573491275093.75,-24,3,60,0,0,0,0,0
1573491275125,-23,3,59,0,0,0,0,0
1573491275156.25,-25,2,59,0,0,0,0,0
1573491275187.5,-24,2,59,0,0,0,0,0
1573491275218.75,-24,3,59,0,0,0,0,0
1573491275250,-25,3,59,0,0,0,0,0
1573491275281.25,-24,3,59,0,0,0,0,0
1573491275312.5,-25,3,59,0,0,0,0,0
1573491275343.75,-27,3,59,0,0,0,0,0
1573491275375,-27,3,59,0,0,0,0,0
1573491275406.25,-24,3,59,0,0,0,0,0
1573491275437.5,-23,3,59,0,0,0,0,0
1573491275468.75,-24,2,59,0,0,0,0,0
1573491275500,-25,2,59,0,0,0,0,0
1573491275531.25,-25,3,58,0,0,0,0,0
1573491275562.5,-25,3,59,0,0,0,0,0
1573491275593.75,-25,3,58,0,0,0,0,0
1573491275625,-26,3,58,0,0,0,0,0
1573491275656.25,-27,3,58,0,0,0,0,0
1573491275687.5,-26,3,58,0,0,0,0,0
1573491275718.75,-25,3,58,0,0,0,0,0
1573491275750,-25,3,58,0,0,0,0,0
1573491275781.25,-26,3,58,0,0,0,0,0
1573491275812.5,-27,3,58,0,0,0,0,0
1573491275843.75,-27,3,58,0,0,0,0,0
1573491275875,-28,3,57,0,0,0,0,0
1573491275906.25,-27,3,57,0,0,0,0,0
1573491275937.5,-28,3,57,0,0,0,0,0
1573491275968.75,-29,3,56,0,0,0,0,0
1573491276000,-28,3,57,0,0,0,0,0
1573491276031.25,-27,5,59,0,0,0,0,0
1573491276062.5,-28,5,58,0,0,0,0,0
1573491276093.75,-30,5,57,0,0,0,0,0
1573491276125,-29,5,57,0,0,0,0,0
1573491276156.25,-28,4,57,0,0,0,0,0
1573491276187.5,-28,5,57,0,0,0,0,0
1573491276218.75,-30,5,56,0,0,0,0,0
1573491276250,-29,5,57,0,0,0,0,0
1573491276281.25,-28,4,57,0,0,0,0,0
1573491276312.5,-28,4,56,0,0,0,0,0
1573491276343.75,-29,4,56,0,0,0,0,0
1573491276375,-29,5,57,0,0,0,0,0
1573491276406.25,-30,4,57,0,0,0,0,0
1573491276437.5,-30,4,55,0,0,0,0,0
1573491276468.75,-30,4,56,0,0,0,0,0
1573491276500,-29,4,57,0,0,0,0,0
1573491276531.25,-29,4,57,0,0,0,0,0
1573491276562.5,-28,4,57,0,0,0,0,0
1573491276593.75,-29,4,57,0,0,0,0,0
1573491276625,-31,5,56,0,0,0,0,0
1573491276656.25,-32,5,55,0,0,0,0,0
1573491276687.5,-32,4,56,0,0,0,0,0
1573491276718.75,-31,4,55,0,0,0,0,0
1573491276750,-31,4,56,0,0,0,0,0
1573491276781.25,-31,4,56,0,0,0,0,0
1573491276812.5,-31,5,56,0,0,0,0,0
1573491276843.75,-31,5,55,0,0,0,0,0
1573491276875,-31,5,55,0,0,0,0,0
1573491276906.25,-31,4,56,0,0,0,0,0
1573491276937.5,-31,4,55,0,0,0,0,0
1573491276968.75,-31,4,56,0,0,0,0,0
1573491277000,-31,5,55,0,0,0,0,0
1573491277031.25,-31,5,56,0,0,0,0,0
1573491277062.5,-32,5,55,0,0,0,0,0
1573491277093.75,-31,5,55,0,0,0,0,0
1573491277125,-31,4,55,0,0,0,0,0
1573491277156.25,-31,5,56,0,0,0,0,0
1573491277187.5,-31,5,56,0,0,0,0,0
1573491277218.75,-31,5,56,0,0,0,0,0
1573491277250,-32,5,56,0,0,0,0,0
1573491277281.25,-32,5,56,0,0,0,0,0
1573491277312.5,-31,5,55,0,0,0,0,0
1573491277343.75,-31,5,56,0,0,0,0,0
1573491277375,-31,5,55,0,0,0,0,0
1573491277406.25,-31,5,55,0,0,0,0,0
1573491277437.5,-31,5,56,0,0,0,0,0
1573491277468.75,-31,5,56,0,0,0,0,0
1573491277500,-32,5,55,0,0,0,0,0
1573491277531.25,-31,4,55,0,0,0,0,0
1573491277562.5,-31,4,56,0,0,0,0,0
1573491277593.75,-32,5,55,0,0,0,0,0
1573491277625,-32,5,55,0,0,0,0,0
1573491277656.25,-32,5,55,0,0,0,0,0
1573491277687.5,-31,4,55,0,0,0,0,0
1573491277718.75,-31,5,55,0,0,0,0,0
1573491277750,-32,5,55,0,0,0,0,0
1573491277781.25,-32,5,55,0,0,0,0,0
1573491277812.5,-31,5,55,0,0,0,0,0
1573491277843.75,-32,5,55,0,0,0,0,0
1573491277875,-32,5,55,0,0,0,0,0
1573491277906.25,-31,5,55,0,0,0,0,0
1573491277937.5,-32,5,55,0,0,0,0,0
1573491277968.75,-32,5,55,0,0,0,0,0
1573491278000,-32,4,55,0,0,0,0,0
1573491278031.25,-32,5,55,0,0,0,0,0
1573491278062.5,-31,5,56,0,0,0,0,0
1573491278093.75,-30,4,56,0,0,0,0,0
1573491278125,-32,5,55,0,0,0,0,0
1573491278156.25,-32,5,55,0,0,0,0,0
1573491278187.5,-32,5,55,0,0,0,0,0
1573491278218.75,-32,5,55,0,0,0,0,0
1573491278250,-31,5,55,0,0,0,0,0
1573491278281.25,-31,4,55,0,0,0,0,0
1573491278312.5,-32,5,56,0,0,0,0,0
1573491278343.75,-31,5,56,0,0,0,0,0
1573491278375,-31,5,55,0,0,0,0,0
1573491278406.25,-31,5,55,0,0,0,0,0
1573491278437.5,-32,5,55,0,0,0,0,0
1573491278468.75,-31,5,56,0,0,0,0,0
1573491278500,-31,5,55,0,0,0,0,0
1573491278531.25,-32,5,55,0,0,0,0,0
1573491278562.5,-32,5,55,0,0,0,0,0
1573491278593.75,-31,5,56,0,0,0,0,0
1573491278625,-31,5,56,0,0,0,0,0
1573491278656.25,-32,5,55,0,0,0,0,0
1573491278687.5,-32,5,55,0,0,0,0,0
1573491278718.75,-32,5,55,0,0,0,0,0
1573491278750,-32,5,55,0,0,0,0,0
1573491278781.25,-32,5,55,0,0,0,0,0
1573491278812.5,-31,5,55,0,0,0,0,0
1573491278843.75,-31,5,55,0,0,0,0,0
1573491278875,-32,5,55,0,0,0,0,0
1573491278906.25,-32,5,55,0,0,0,0,0
1573491278937.5,-31,5,56,0,0,0,0,0
1573491278968.75,-31,5,56,0,0,0,0,0
1573491279000,-32,5,56,0,0,0,0,0
1573491279031.25,-32,5,56,0,0,0,0,0
1573491279062.5,-31,5,55,0,0,0,0,0
1573491279093.75,-32,5,55,0,0,0,0,0
1573491279125,-32,5,56,0,0,0,0,0
1573491279156.25,-32,5,56,0,0,0,0,0
1573491279187.5,-30,5,56,0,0,0,0,0
1573491279218.75,-31,4,55,0,0,0,0,0
1573491279250,-32,4,55,0,0,0,0,0
1573491279281.25,-31,5,55,0,0,0,0,0
1573491279312.5,-32,5,55,0,0,0,0,0
1573491279343.75,-31,5,55,0,0,0,0,0
1573491279375,-31,5,56,0,0,0,0,0
1573491279406.25,-31,4,55,0,0,0,0,0
1573491279437.5,-31,5,56,0,0,0,0,0
1573491279468.75,-31,5,56,0,0,0,0,0
1573491279500,-30,4,56,0,0,0,0,0
1573491279531.25,-31,5,56,0,0,0,0,0
1573491279562.5,-31,5,56,0,0,0,0,0
1573491279593.75,-31,5,56,0,0,0,0,0
1573491279625,-31,5,55,0,0,0,0,0
1573491279656.25,-31,5,55,0,0,0,0,0
1573491279687.5,-30,4,56,0,0,0,0,0
1573491279718.75,-30,4,56,0,0,0,0,0
1573491279750,-30,5,56,0,0,0,0,0
1573491279781.25,-31,5,56,0,0,0,0,0
1573491279812.5,-30,5,56,0,0,0,0,0
1573491279843.75,-31,5,56,0,0,0,0,0
1573491279875,-30,5,56,0,0,0,0,0
1573491279906.25,-31,5,56,0,0,0,0,0
1573491279937.5,-31,4,55,0,0,0,0,0
1573491279968.75,-30,4,55,0,0,0,0,0
1573491280000,-30,5,57,0,0,0,0,0
1573491280031.25,-31,5,56,0,0,0,0,0
1573491280062.5,-31,5,56,0,0,0,0,0
1573491280093.75,-31,5,56,0,0,0,0,0
1573491280125,-30,5,56,0,0,0,0,0
1573491280156.25,-30,5,56,0,0,0,0,0
1573491280187.5,-30,5,56,0,0,0,0,0
1573491280218.75,-30,4,56,0,0,0,0,0
1573491280250,-30,5,56,0,0,0,0,0
1573491280281.25,-30,4,56,0,0,0,0,0
1573491280312.5,-30,5,56,0,0,0,0,0
1573491280343.75,-30,5,56,0,0,0,0,0
1573491280375,-30,5,56,0,0,0,0,0
1573491280406.25,-30,5,56,0,0,0,0,0
1573491280437.5,-30,5,56,0,0,0,0,0
1573491280468.75,-30,5,57,0,0,0,0,0
1573491280500,-29,5,57,0,0,0,0,0
1573491280531.25,-30,5,57,0,0,0,0,0
1573491280562.5,-30,4,56,0,0,0,0,0
1573491280593.75,-30,3,56,0,0,0,0,0
1573491280625,-28,3,57,0,0,0,0,0
1573491280656.25,-28,3,56,0,0,0,0,0
1573491280687.5,-32,4,54,0,0,0,0,0
1573491280718.75,-33,5,55,0,0,0,0,0
1573491280750,-34,8,55,0,0,0,0,0
1573491280781.25,-35,8,53,0,0,0,0,0
1573491280812.5,-33,7,55,0,0,0,0,0
1573491280843.75,-29,6,57,0,0,0,0,0
1573491280875,-28,5,56,0,0,0,0,0
1573491280906.25,-28,5,58,0,0,0,0,0
1573491280937.5,-28,5,59,0,0,0,0,0
1573491280968.75,-31,5,54,0,0,0,0,0
1573491281000,-32,6,53,0,0,0,0,0
1573491281031.25,-31,7,56,0,0,0,0,0
1573491281062.5,-30,7,57,0,0,0,0,0
1573491281093.75,-31,7,56,0,0,0,0,0
1573491281125,-30,7,56,0,0,0,0,0
1573491281156.25,-30,7,59,0,0,0,0,0
1573491281187.5,-29,8,57,0,0,0,0,0
1573491281218.75,-31,7,56,0,0,0,0,0
1573491281250,-31,5,54,0,0,0,0,0
1573491281281.25,-35,4,52,0,0,0,0,0
1573491281312.5,-36,4,50,0,0,0,0,0
1573491281343.75,-36,4,50,0,0,0,0,0
1573491281375,-37,6,52,0,0,0,0,0
1573491281406.25,-37,8,55,0,0,0,0,0
1573491281437.5,-33,8,59,0,0,0,0,0
1573491281468.75,-27,6,62,0,0,0,0,0
1573491281500,-26,4,72,0,0,0,0,0
1573491281531.25,-50,3,64,0,0,0,0,0
1573491281562.5,-39,-8,68,0,0,0,0,0
1573491281593.75,-34,-11,63,0,0,0,0,0
1573491281625,-22,-11,61,0,0,0,0,0
1573491281656.25,-16,-11,55,0,0,0,0,0
1573491281687.5,-13,-11,55,0,0,0,0,0
1573491281718.75,-11,-11,54,0,0,0,0,0
1573491281750,-13,-13,52,0,0,0,0,0
1573491281781.25,-18,-10,58,0,0,0,0,0
1573491281812.5,-15,-9,61,0,0,0,0,0
1573491281843.75,-4,-12,57,0,0,0,0,0
1573491281875,0,-11,56,0,0,0,0,0
1573491281906.25,0,-8,56,0,0,0,0,0
1573491281937.5,1,-8,55,0,0,0,0,0
1573491281968.75,5,-2,59,0,0,0,0,0
1573491282000,8,1,55,0,0,0,0,0
1573491282031.25,9,3,56,0,0,0,0,0
1573491282062.5,12,10,62,0,0,0,0,0
1573491282093.75,9,14,61,0,0,0,0,0
1573491282125,8,23,67,0,0,0,0,0
1573491282156.25,9,25,67,0,0,0,0,0
1573491282187.5,15,20,57,0,0,0,0,0
1573491282218.75,17,19,56,0,0,0,0,0
1573491282250,16,20,58,0,0,0,0,0
1573491282281.25,13,20,61,0,0,0,0,0
1573491282312.5,16,19,64,0,0,0,0,0
1573491282343.75,18,19,64,0,0,0,0,0
1573491282375,18,21,61,0,0,0,0,0
1573491282406.25,18,21,60,0,0,0,0,0
1573491282437.5,20,21,60,0,0,0,0,0
1573491282468.75,18,19,56,0,0,0,0,0
1573491282500,17,19,56,0,0,0,0,0
1573491282531.25,20,19,56,0,0,0,0,0
1573491282562.5,20,19,55,0,0,0,0,0
1573491282593.75,21,21,57,0,0,0,0,0
1573491282625,22,22,57,0,0,0,0,0
1573491282656.25,22,22,55,0,0,0,0,0
1573491282687.5,22,23,56,0,0,0,0,0
1573491282718.75,23,23,56,0,0,0,0,0
1573491282750,21,24,55,0,0,0,0,0
1573491282781.25,22,26,57,0,0,0,0,0
1573491282812.5,23,25,55,0,0,0,0,0
1573491282843.75,22,25,56,0,0,0,0,0
1573491282875,26,23,60,0,0,0,0,0
1573491282906.25,26,20,59,0,0,0,0,0
1573491282937.5,22,17,57,0,0,0,0,0
1573491282968.75,19,17,56,0,0,0,0,0
1573491283000,12,20,54,0,0,0,0,0
1573491283031.25,13,23,57,0,0,0,0,0
1573491283062.5,20,27,57,0,0,0,0,0
1573491283093.75,20,28,54,0,0,0,0,0
1573491283125,21,29,52,0,0,0,0,0
1573491283156.25,20,29,51,0,0,0,0,0
1573491283187.5,19,28,49,0,0,0,0,0
1573491283218.75,25,28,53,0,0,0,0,0
1573491283250,23,28,53,0,0,0,0,0
1573491283281.25,23,26,55,0,0,0,0,0
1573491283312.5,21,26,55,0,0,0,0,0
1573491283343.75,16,26,56,0,0,0,0,0
1573491283375,14,28,58,0,0,0,0,0
1573491283406.25,12,28,55,0,0,0,0,0
1573491283437.5,12,28,54,0,0,0,0,0
1573491283468.75,13,30,56,0,0,0,0,0
1573491283500,10,30,52,0,0,0,0,0
1573491283531.25,12,27,54,0,0,0,0,0
1573491283562.5,15,26,55,0,0,0,0,0
1573491283593.75,17,26,55,0,0,0,0,0
1573491283625,18,27,57,0,0,0,0,0
1573491283656.25,18,28,59,0,0,0,0,0
1573491283687.5,16,31,59,0,0,0,0,0
1573491283718.75,17,32,58,0,0,0,0,0
1573491283750,20,32,56,0,0,0,0,0
1573491283781.25,19,32,55,0,0,0,0,0
1573491283812.5,17,33,55,0,0,0,0,0
1573491283843.75,18,33,56,0,0,0,0,0
1573491283875,17,32,55,0,0,0,0,0
1573491283906.25,17,31,55,0,0,0,0,0
1573491283937.5,16,31,54,0,0,0,0,0
1573491283968.75,15,32,53,0,0,0,0,0
1573491284000,16,32,54,0,0,0,0,0
1573491284031.25,15,33,52,0,0,0,0,0
1573491284062.5,15,33,53,0,0,0,0,0
1573491284093.75,16,33,53,0,0,0,0,0
1573491284125,16,33,52,0,0,0,0,0
1573491284156.25,16,32,52,0,0,0,0,0
1573491284187.5,15,32,51,0,0,0,0,0
1573491284218.75,17,32,50,0,0,0,0,0
1573491284250,19,32,51,0,0,0,0,0
1573491284281.25,21,31,52,0,0,0,0,0
1573491284312.5,22,32,53,0,0,0,0,0
1573491284343.75,23,32,55,0,0,0,0,0
1573491284375,23,32,54,0,0,0,0,0
1573491284406.25,20,32,52,0,0,0,0,0
1573491284437.5,17,33,52,0,0,0,0,0
1573491284468.75,18,32,51,0,0,0,0,0
1573491284500,20,33,51,0,0,0,0,0
1573491284531.25,19,33,51,0,0,0,0,0
1573491284562.5,17,33,52,0,0,0,0,0
1573491284593.75,18,33,53,0,0,0,0,0
1573491284625,21,33,52,0,0,0,0,0
1573491284656.25,22,33,52,0,0,0,0,0
1573491284687.5,23,32,52,0,0,0,0,0
1573491284718.75,24,32,53,0,0,0,0,0
1573491284750,20,32,52,0,0,0,0,0
1573491284781.25,17,33,53,0,0,0,0,0
1573491284812.5,14,33,51,0,0,0,0,0
1573491284843.75,14,33,51,0,0,0,0,0
1573491284875,16,32,52,0,0,0,0,0
1573491284906.25,23,31,53,0,0,0,0,0
1573491284937.5,24,31,52,0,0,0,0,0
1573491284968.75,22,32,52,0,0,0,0,0
1573491285000,22,32,52,0,0,0,0,0
1573491285031.25,22,31,53,0,0,0,0,0
1573491285062.5,21,31,53,0,0,0,0,0
1573491285093.75,20,31,54,0,0,0,0,0
1573491285125,22,31,55,0,0,0,0,0
1573491285156.25,20,30,56,0,0,0,0,0
1573491285187.5,22,31,60,0,0,0,0,0
1573491285218.75,21,34,61,0,0,0,0,0
1573491285250,8,33,55,0,0,0,0,0
1573491285281.25,4,30,53,0,0,0,0,0
1573491285312.5,2,26,58,0,0,0,0,0
1573491285343.75,2,25,57,0,0,0,0,0
1573491285375,5,22,55,0,0,0,0,0
1573491285406.25,7,21,55,0,0,0,0,0
1573491285437.5,7,20,56,0,0,0,0,0
1573491285468.75,6,20,56,0,0,0,0,0
1573491285500,8,20,59,0,0,0,0,0
1573491285531.25,8,20,60,0,0,0,0,0
1573491285562.5,5,20,61,0,0,0,0,0
1573491285593.75,6,21,61,0,0,0,0,0
1573491285625,6,21,60,0,0,0,0,0
1573491285656.25,4,21,60,0,0,0,0,0
1573491285687.5,3,21,59,0,0,0,0,0
1573491285718.75,7,20,61,0,0,0,0,0
1573491285750,6,21,61,0,0,0,0,0
1573491285781.25,5,20,61,0,0,0,0,0
1573491285812.5,4,20,61,0,0,0,0,0
1573491285843.75,5,20,61,0,0,0,0,0
1573491285875,5,20,60,0,0,0,0,0
1573491285906.25,4,20,60,0,0,0,0,0
1573491285937.5,6,19,61,0,0,0,0,0
1573491285968.75,6,19,60,0,0,0,0,0
1573491286000,7,18,60,0,0,0,0,0
1573491286031.25,7,18,61,0,0,0,0,0
1573491286062.5,8,18,61,0,0,0,0,0
1573491286093.75,9,19,61,0,0,0,0,0
1573491286125,8,19,61,0,0,0,0,0
1573491286156.25,8,19,61,0,0,0,0,0
1573491286187.5,7,20,61,0,0,0,0,0
1573491286218.75,6,20,60,0,0,0,0,0
1573491286250,6,20,60,0,0,0,0,0
1573491286281.25,6,20,61,0,0,0,0,0
1573491286312.5,6,20,60,0,0,0,0,0
1573491286343.75,6,19,60,0,0,0,0,0
1573491286375,6,19,59,0,0,0,0,0
1573491286406.25,6,20,59,0,0,0,0,0
1573491286437.5,7,20,62,0,0,0,0,0
1573491286468.75,7,21,61,0,0,0,0,0
1573491286500,6,21,62,0,0,0,0,0
1573491286531.25,5,22,61,0,0,0,0,0
1573491286562.5,5,22,60,0,0,0,0,0
1573491286593.75,4,22,59,0,0,0,0,0
1573491286625,3,22,58,0,0,0,0,0
1573491286656.25,6,22,60,0,0,0,0,0
1573491286687.5,6,21,60,0,0,0,0,0
1573491286718.75,5,21,61,0,0,0,0,0
1573491286750,6,22,62,0,0,0,0,0
1573491286781.25,8,22,62,0,0,0,0,0
1573491286812.5,8,22,61,0,0,0,0,0
1573491286843.75,6,21,61,0,0,0,0,0
1573491286875,7,21,59,0,0,0,0,0
1573491286906.25,6,21,59,0,0,0,0,0
1573491286937.5,5,22,59,0,0,0,0,0
1573491286968.75,6,22,59,0,0,0,0,0
1573491287000,6,21,60,0,0,0,0,0
1573491287031.25,7,22,60,0,0,0,0,0
1573491287062.5,7,22,61,0,0,0,0,0
1573491287093.75,7,22,60,0,0,0,0,0
1573491287125,6,22,60,0,0,0,0,0
1573491287156.25,5,22,60,0,0,0,0,0
1573491287187.5,5,21,60,0,0,0,0,0
1573491287218.75,5,21,60,0,0,0,0,0
1573491287250,5,22,60,0,0,0,0,0
1573491287281.25,5,22,61,0,0,0,0,0
1573491287312.5,5,23,60,0,0,0,0,0
1573491287343.75,5,23,60,0,0,0,0,0
1573491287375,5,23,60,0,0,0,0,0
1573491287406.25,5,23,60,0,0,0,0,0
1573491287437.5,5,23,59,0,0,0,0,0
1573491287468.75,4,23,59,0,0,0,0,0
1573491287500,5,23,60,0,0,0,0,0
1573491287531.25,7,24,60,0,0,0,0,0
1573491287562.5,7,23,60,0,0,0,0,0
1573491287593.75,7,22,59,0,0,0,0,0
1573491287625,7,23,59,0,0,0,0,0
1573491287656.25,7,22,59,0,0,0,0,0
1573491287687.5,7,23,60,0,0,0,0,0
1573491287718.75,6,23,60,0,0,0,0,0
1573491287750,6,23,60,0,0,0,0,0
1573491287781.25,6,24,60,0,0,0,0,0
1573491287812.5,5,24,60,0,0,0,0,0
1573491287843.75,5,24,60,0,0,0,0,0
1573491287875,5,23,60,0,0,0,0,0
1573491287906.25,6,23,59,0,0,0,0,0
1573491287937.5,6,23,60,0,0,0,0,0
1573491287968.75,6,23,59,0,0,0,0,0
1573491288000,6,23,59,0,0,0,0,0
1573491288031.25,6,23,60,0,0,0,0,0
1573491288062.5,7,24,60,0,0,0,0,0
1573491288093.75,6,23,60,0,0,0,0,0
1573491288125,6,23,60,0,0,0,0,0
1573491288156.25,6,23,60,0,0,0,0,0
1573491288187.5,5,23,60,0,0,0,0,0
1573491288218.75,5,23,60,0,0,0,0,0
1573491288250,5,24,60,0,0,0,0,0
1573491288281.25,6,24,59,0,0,0,0,0
1573491288312.5,6,23,60,0,0,0,0,0
1573491288343.75,5,23,59,0,0,0,0,0
1573491288375,5,23,59,0,0,0,0,0
1573491288406.25,5,23,60,0,0,0,0,0
1573491288437.5,6,23,60,0,0,0,0,0
1573491288468.75,5,23,60,0,0,0,0,0
1573491288500,5,23,59,0,0,0,0,0
1573491288531.25,5,23,60,0,0,0,0,0
1573491288562.5,5,23,59,0,0,0,0,0
1573491288593.75,5,24,60,0,0,0,0,0
1573491288625,6,23,60,0,0,0,0,0
1573491288656.25,6,23,60,0,0,0,0,0
1573491288687.5,6,23,60,0,0,0,0,0
1573491288718.75,5,23,59,0,0,0,0,0
1573491288750,5,23,59,0,0,0,0,0
1573491288781.25,4,23,59,0,0,0,0,0
1573491288812.5,5,23,60,0,0,0,0,0
1573491288843.75,5,23,60,0,0,0,0,0
1573491288875,5,23,60,0,0,0,0,0
1573491288906.25,5,23,60,0,0,0,0,0
1573491288937.5,5,24,60,0,0,0,0,0
1573491288968.75,5,23,59,0,0,0,0,0
1573491289000,5,23,59,0,0,0,0,0
1573491289031.25,4,23,59,0,0,0,0,0
1573491289062.5,5,22,59,0,0,0,0,0
1573491289093.75,4,23,60,0,0,0,0,0
1573491289125,3,23,59,0,0,0,0,0
1573491289156.25,5,23,60,0,0,0,0,0
1573491289187.5,4,23,60,0,0,0,0,0
1573491289218.75,4,22,59,0,0,0,0,0
1573491289250,3,23,59,0,0,0,0,0
1573491289281.25,4,23,60,0,0,0,0,0
1573491289312.5,6,24,61,0,0,0,0,0
1573491289343.75,6,23,60,0,0,0,0,0
1573491289375,5,24,60,0,0,0,0,0
1573491289406.25,6,23,59,0,0,0,0,0
1573491289437.5,6,23,59,0,0,0,0,0
1573491289468.75,4,23,58,0,0,0,0,0
1573491289500,5,24,59,0,0,0,0,0
1573491289531.25,5,24,60,0,0,0,0,0
1573491289562.5,4,24,60,0,0,0,0,0
1573491289593.75,4,24,60,0,0,0,0,0
1573491289625,5,23,60,0,0,0,0,0
1573491289656.25,5,23,60,0,0,0,0,0
1573491289687.5,5,23,60,0,0,0,0,0
1573491289718.75,4,23,60,0,0,0,0,0
1573491289750,4,23,60,0,0,0,0,0
1573491289781.25,3,23,60,0,0,0,0,0
1573491289812.5,4,23,60,0,0,0,0,0
1573491289843.75,4,23,60,0,0,0,0,0
1573491289875,4,23,60,0,0,0,0,0
1573491289906.25,4,23,60,0,0,0,0,0
1573491289937.5,4,23,60,0,0,0,0,0
1573491289968.75,5,23,60,0,0,0,0,0
1573491290000,5,23,60,0,0,0,0,0
1573491290031.25,4,23,60,0,0,0,0,0
1573491290062.5,4,23,60,0,0,0,0,0
1573491290093.75,4,23,61,0,0,0,0,0
1573491290125,4,23,60,0,0,0,0,0
1573491290156.25,2,23,60,0,0,0,0,0
1573491290187.5,2,22,60,0,0,0,0,0
1573491290218.75,2,22,60,0,0,0,0,0
1573491290250,2,21,60,0,0,0,0,0
1573491290281.25,2,21,60,0,0,0,0,0
1573491290312.5,3,21,61,0,0,0,0,0
1573491290343.75,2,21,61,0,0,0,0,0
1573491290375,2,21,61,0,0,0,0,0
1573491290406.25,2,21,61,0,0,0,0,0
1573491290437.5,1,21,61,0,0,0,0,0
1573491290468.75,2,22,61,0,0,0,0,0
1573491290500,1,22,61,0,0,0,0,0
1573491290531.25,4,23,64,0,0,0,0,0
1573491290562.5,8,23,66,0,0,0,0,0
1573491290593.75,8,22,64,0,0,0,0,0
1573491290625,6,22,64,0,0,0,0,0
1573491290656.25,1,20,61,0,0,0,0,0
1573491290687.5,0,20,61,0,0,0,0,0
1573491290718.75,-5,18,57,0,0,0,0,0
1573491290750,-7,17,56,0,0,0,0,0
1573491290781.25,-9,16,56,0,0,0,0,0
1573491290812.5,-8,14,58,0,0,0,0,0
1573491290843.75,-9,11,61,0,0,0,0,0
1573491290875,-14,9,61,0,0,0,0,0
1573491290906.25,-16,8,60,0,0,0,0,0
1573491290937.5,-17,6,61,0,0,0,0,0
1573491290968.75,-15,5,61,0,0,0,0,0
1573491291000,-13,5,61,0,0,0,0,0
1573491291031.25,-11,5,63,0,0,0,0,0
1573491291062.5,-6,6,65,0,0,0,0,0
1573491291093.75,-5,6,65,0,0,0,0,0
1573491291125,-5,9,66,0,0,0,0,0
1573491291156.25,-6,11,66,0,0,0,0,0
1573491291187.5,-5,13,66,0,0,0,0,0
1573491291218.75,-6,15,68,0,0,0,0,0
1573491291250,-16,34,94,0,0,0,0,0
1573491291281.25,5,19,79,0,0,0,0,0
1573491291312.5,-2,9,67,0,0,0,0,0
1573491291343.75,-21,1,57,0,0,0,0,0
1573491291375,-18,-2,57,0,0,0,0,0
1573491291406.25,-8,-8,54,0,0,0,0,0
1573491291437.5,-6,-10,50,0,0,0,0,0
1573491291468.75,-11,-10,43,0,0,0,0,0
1573491291500,-10,-10,44,0,0,0,0,0
1573491291531.25,-9,-13,45,0,0,0,0,0
1573491291562.5,-9,-13,47,0,0,0,0,0
1573491291593.75,-12,-10,53,0,0,0,0,0
1573491291625,-14,-8,58,0,0,0,0,0
1573491291656.25,-14,-5,61,0,0,0,0,0
1573491291687.5,-17,-3,64,0,0,0,0,0
1573491291718.75,-16,-2,66,0,0,0,0,0
1573491291750,-13,-3,67,0,0,0,0,0
1573491291781.25,-13,-4,66,0,0,0,0,0
1573491291812.5,-11,-3,70,0,0,0,0,0
1573491291843.75,-15,-2,75,0,0,0,0,0
1573491291875,-6,-1,67,0,0,0,0,0
1573491291906.25,-7,0,68,0,0,0,0,0
1573491291937.5,-11,1,64,0,0,0,0,0
1573491291968.75,-14,2,62,0,0,0,0,0
1573491292000,-15,1,60,0,0,0,0,0
1573491292031.25,-16,1,59,0,0,0,0,0
1573491292062.5,-17,2,61,0,0,0,0,0
1573491292093.75,-16,2,63,0,0,0,0,0
1573491292125,-14,2,64,0,0,0,0,0
1573491292156.25,-13,2,64,0,0,0,0,0
1573491292187.5,-13,2,64,0,0,0,0,0
1573491292218.75,-14,1,63,0,0,0,0,0
1573491292250,-13,1,62,0,0,0,0,0
1573491292281.25,-13,1,62,0,0,0,0,0
1573491292312.5,-14,1,61,0,0,0,0,0
1573491292343.75,-14,2,62,0,0,0,0,0
1573491292375,-14,2,62,0,0,0,0,0
1573491292406.25,-14,4,63,0,0,0,0,0
1573491292437.5,-12,3,63,0,0,0,0,0
1573491292468.75,-11,2,64,0,0,0,0,0
1573491292500,-12,2,63,0,0,0,0,0
1573491292531.25,-13,2,63,0,0,0,0,0
1573491292562.5,-14,2,62,0,0,0,0,0
1573491292593.75,-14,2,62,0,0,0,0,0
1573491292625,-15,3,62,0,0,0,0,0
1573491292656.25,-16,4,62,0,0,0,0,0
1573491292687.5,-14,3,62,0,0,0,0,0
1573491292718.75,-14,3,62,0,0,0,0,0
1573491292750,-14,3,63,0,0,0,0,0
1573491292781.25,-15,2,63,0,0,0,0,0
1573491292812.5,-12,2,63,0,0,0,0,0
1573491292843.75,-11,2,63,0,0,0,0,0
1573491292875,-12,2,62,0,0,0,0,0
1573491292906.25,-14,3,62,0,0,0,0,0
1573491292937.5,-14,3,62,0,0,0,0,0
1573491292968.75,-14,3,62,0,0,0,0,0
1573491293000,-14,3,62,0,0,0,0,0
1573491293031.25,-14,3,63,0,0,0,0,0
1573491293062.5,-13,3,62,0,0,0,0,0
1573491293093.75,-13,3,63,0,0,0,0,0
1573491293125,-13,4,63,0,0,0,0,0
1573491293156.25,-14,3,62,0,0,0,0,0
1573491293187.5,-14,3,62,0,0,0,0,0
1573491293218.75,-14,2,62,0,0,0,0,0
1573491293250,-15,2,62,0,0,0,0,0
1573491293281.25,-15,2,62,0,0,0,0,0
1573491293312.5,-16,2,63,0,0,0,0,0
1573491293343.75,-16,3,62,0,0,0,0,0
1573491293375,-15,3,62,0,0,0,0,0
1573491293406.25,-15,4,62,0,0,0,0,0
1573491293437.5,-14,3,63,0,0,0,0,0
1573491293468.75,-14,3,62,0,0,0,0,0
1573491293500,-14,3,62,0,0,0,0,0
1573491293531.25,-15,3,62,0,0,0,0,0
1573491293562.5,-16,3,62,0,0,0,0,0
1573491293593.75,-15,3,62,0,0,0,0,0
1573491293625,-14,3,62,0,0,0,0,0
1573491293656.25,-14,3,62,0,0,0,0,0
1573491293687.5,-13,3,63,0,0,0,0,0
1573491293718.75,-13,3,63,0,0,0,0,0
1573491293750,-13,3,63,0,0,0,0,0
1573491293781.25,-13,3,62,0,0,0,0,0
1573491293812.5,-13,3,62,0,0,0,0,0
1573491293843.75,-14,2,62,0,0,0,0,0
1573491293875,-14,3,62,0,0,0,0,0
1573491293906.25,-13,2,62,0,0,0,0,0
1573491293937.5,-13,2,62,0,0,0,0,0
1573491293968.75,-13,3,63,0,0,0,0,0
1573491294000,-14,3,62,0,0,0,0,0
1573491294031.25,-14,3,62,0,0,0,0,0
1573491294062.5,-14,3,62,0,0,0,0,0
1573491294093.75,-14,3,62,0,0,0,0,0
1573491294125,-13,2,62,0,0,0,0,0
1573491294156.25,-13,2,63,0,0,0,0,0
1573491294187.5,-13,3,63,0,0,0,0,0
1573491294218.75,-13,2,62,0,0,0,0,0
1573491294250,-14,3,62,0,0,0,0,0
1573491294281.25,-14,3,62,0,0,0,0,0
1573491294312.5,-13,3,62,0,0,0,0,0
1573491294343.75,-13,3,62,0,0,0,0,0
1573491294375,-13,2,63,0,0,0,0,0
1573491294406.25,-13,2,63,0,0,0,0,0
1573491294437.5,-13,3,63,0,0,0,0,0
1573491294468.75,-13,2,62,0,0,0,0,0
1573491294500,-14,3,62,0,0,0,0,0
1573491294531.25,-13,3,62,0,0,0,0,0
1573491294562.5,-13,3,62,0,0,0,0,0
1573491294593.75,-13,3,62,0,0,0,0,0
1573491294625,-13,2,63,0,0,0,0,0
1573491294656.25,-13,3,63,0,0,0,0,0
1573491294687.5,-13,3,63,0,0,0,0,0
1573491294718.75,-13,3,63,0,0,0,0,0
1573491294750,-13,3,63,0,0,0,0,0
1573491294781.25,-12,2,62,0,0,0,0,0
1573491294812.5,-12,2,62,0,0,0,0,0
1573491294843.75,-14,2,62,0,0,0,0,0
1573491294875,-13,2,63,0,0,0,0,0
1573491294906.25,-13,2,63,0,0,0,0,0
1573491294937.5,-13,2,62,0,0,0,0,0
1573491294968.75,-13,2,62,0,0,0,0,0
1573491295000,-14,2,62,0,0,0,0,0
1573491295031.25,-14,2,63,0,0,0,0,0
1573491295062.5,-13,2,62,0,0,0,0,0
1573491295093.75,-13,2,63,0,0,0,0,0
1573491295125,-14,3,63,0,0,0,0,0
1573491295156.25,-14,2,63,0,0,0,0,0
1573491295187.5,-14,2,62,0,0,0,0,0
1573491295218.75,-13,2,62,0,0,0,0,0
1573491295250,-12,1,62,0,0,0,0,0
1573491295281.25,-11,1,63,0,0,0,0,0
1573491295312.5,-12,1,63,0,0,0,0,0
1573491295343.75,-14,1,62,0,0,0,0,0
1573491295375,-15,1,62,0,0,0,0,0
1573491295406.25,-15,1,62,0,0,0,0,0
1573491295437.5,-15,2,62,0,0,0,0,0
1573491295468.75,-15,2,62,0,0,0,0,0
1573491295500,-15,2,62,0,0,0,0,0
1573491295531.25,-14,2,62,0,0,0,0,0
1573491295562.5,-14,1,62,0,0,0,0,0
1573491295593.75,-13,1,62,0,0,0,0,0
1573491295625,-13,2,64,0,0,0,0,0
1573491295656.25,-13,2,63,0,0,0,0,0
1573491295687.5,-13,2,62,0,0,0,0,0
1573491295718.75,-13,2,62,0,0,0,0,0
1573491295750,-14,1,63,0,0,0,0,0
1573491295781.25,-14,1,62,0,0,0,0,0
1573491295812.5,-14,0,62,0,0,0,0,0
1573491295843.75,-15,0,62,0,0,0,0,0
1573491295875,-15,0,62,0,0,0,0,0
1573491295906.25,-16,0,62,0,0,0,0,0
1573491295937.5,-16,1,62,0,0,0,0,0
1573491295968.75,-16,1,62,0,0,0,0,0
1573491296000,-15,1,63,0,0,0,0,0
1573491296031.25,-15,1,63,0,0,0,0,0
1573491296062.5,-14,1,62,0,0,0,0,0
1573491296093.75,-14,1,62,0,0,0,0,0
1573491296125,-14,0,61,0,0,0,0,0
1573491296156.25,-15,0,62,0,0,0,0,0
1573491296187.5,-15,0,63,0,0,0,0,0
1573491296218.75,-16,1,63,0,0,0,0,0
1573491296250,-15,1,62,0,0,0,0,0
1573491296281.25,-15,0,61,0,0,0,0,0
1573491296312.5,-15,0,61,0,0,0,0,0
1573491296343.75,-14,0,62,0,0,0,0,0
1573491296375,-14,0,62,0,0,0,0,0
1573491296406.25,-14,0,62,0,0,0,0,0
1573491296437.5,-14,0,62,0,0,0,0,0
1573491296468.75,-15,0,62,0,0,0,0,0
1573491296500,-15,0,62,0,0,0,0,0
1573491296531.25,-14,1,63,0,0,0,0,0
1573491296562.5,-13,1,62,0,0,0,0,0
1573491296593.75,-13,1,62,0,0,0,0,0
1573491296625,-13,0,61,0,0,0,0,0
1573491296656.25,-13,1,63,0,0,0,0,0
1573491296687.5,-13,1,66,0,0,0,0,0
1573491296718.75,-14,2,65,0,0,0,0,0
1573491296750,-16,1,60,0,0,0,0,0
1573491296781.25,-15,0,60,0,0,0,0,0
1573491296812.5,-15,-1,62,0,0,0,0,0
1573491296843.75,-16,-1,62,0,0,0,0,0
1573491296875,-18,-2,62,0,0,0,0,0
1573491296906.25,-18,-1,62,0,0,0,0,0
1573491296937.5,-18,-1,62,0,0,0,0,0
1573491296968.75,-15,0,63,0,0,0,0,0
1573491297000,-14,1,63,0,0,0,0,0
1573491297031.25,-14,2,63,0,0,0,0,0
1573491297062.5,-14,2,66,0,0,0,0,0
1573491297093.75,-13,2,63,0,0,0,0,0
1573491297125,-14,2,57,0,0,0,0,0
1573491297156.25,-15,0,57,0,0,0,0,0
1573491297187.5,-15,-1,60,0,0,0,0,0
1573491297218.75,-15,-2,64,0,0,0,0,0
1573491297250,-15,-2,65,0,0,0,0,0
1573491297281.25,-17,0,63,0,0,0,0,0
1573491297312.5,-17,1,62,0,0,0,0,0
1573491297343.75,-17,3,62,0,0,0,0,0
1573491297375,-17,4,60,0,0,0,0,0
1573491297406.25,-17,4,59,0,0,0,0,0
1573491297437.5,-18,3,60,0,0,0,0,0
1573491297468.75,-19,1,60,0,0,0,0,0
1573491297500,-18,-1,62,0,0,0,0,0
1573491297531.25,-18,-2,63,0,0,0,0,0
1573491297562.5,-19,-3,62,0,0,0,0,0
1573491297593.75,-20,-3,61,0,0,0,0,0
1573491297625,-20,-3,60,0,0,0,0,0
1573491297656.25,-20,-3,60,0,0,0,0,0
1573491297687.5,-21,-2,58,0,0,0,0,0
1573491297718.75,-22,-1,58,0,0,0,0,0
1573491297750,-22,-1,63,0,0,0,0,0
1573491297781.25,-22,1,57,0,0,0,0,0
1573491297812.5,-21,1,58,0,0,0,0,0
1573491297843.75,-16,1,63,0,0,0,0,0
1573491297875,-14,0,64,0,0,0,0,0
1573491297906.25,-11,-2,65,0,0,0,0,0
1573491297937.5,-11,-3,63,0,0,0,0,0
1573491297968.75,-16,-5,59,0,0,0,0,0
1573491298000,-19,-5,58,0,0,0,0,0
1573491298031.25,-23,-4,58,0,0,0,0,0
1573491298062.5,-24,-3,57,0,0,0,0,0
1573491298093.75,-24,-2,61,0,0,0,0,0
1573491298125,-22,-1,62,0,0,0,0,0
1573491298156.25,-19,-1,62,0,0,0,0,0
1573491298187.5,-17,-2,62,0,0,0,0,0
1573491298218.75,-16,-3,62,0,0,0,0,0
1573491298250,-17,-3,61,0,0,0,0,0
1573491298281.25,-17,-3,62,0,0,0,0,0
1573491298312.5,-19,-3,63,0,0,0,0,0
1573491298343.75,-19,-2,62,0,0,0,0,0
1573491298375,-20,-1,60,0,0,0,0,0
1573491298406.25,-19,0,61,0,0,0,0,0
1573491298437.5,-18,2,61,0,0,0,0,0
1573491298468.75,-16,2,61,0,0,0,0,0
1573491298500,-14,0,63,0,0,0,0,0
1573491298531.25,-14,-1,64,0,0,0,0,0
1573491298562.5,-15,-1,63,0,0,0,0,0
1573491298593.75,-16,-1,62,0,0,0,0,0
1573491298625,-17,-1,61,0,0,0,0,0
1573491298656.25,-19,0,61,0,0,0,0,0
1573491298687.5,-18,0,60,0,0,0,0,0
1573491298718.75,-18,-1,61,0,0,0,0,0
1573491298750,-17,-1,61,0,0,0,0,0
1573491298781.25,-16,-1,65,0,0,0,0,0
1573491298812.5,-16,-2,70,0,0,0,0,0
1573491298843.75,-18,0,70,0,0,0,0,0
1573491298875,-20,1,65,0,0,0,0,0
1573491298906.25,-19,0,59,0,0,0,0,0
1573491298937.5,-15,-2,53,0,0,0,0,0
1573491298968.75,-12,-4,44,0,0,0,0,0
1573491299000,-15,-7,48,0,0,0,0,0
1573491299031.25,-18,-6,55,0,0,0,0,0
1573491299062.5,-26,-1,69,0,0,0,0,0
1573491299093.75,-24,-1,71,0,0,0,0,0
1573491299125,-15,-2,69,0,0,0,0,0
1573491299156.25,-9,-1,67,0,0,0,0,0
1573491299187.5,-7,0,63,0,0,0,0,0
1573491299218.75,-6,2,62,0,0,0,0,0
1573491299250,-9,4,60,0,0,0,0,0
1573491299281.25,-13,5,60,0,0,0,0,0
1573491299312.5,-22,3,61,0,0,0,0,0
1573491299343.75,-26,2,59,0,0,0,0,0
1573491299375,-35,-5,54,0,0,0,0,0
1573491299406.25,-35,-7,54,0,0,0,0,0
1573491299437.5,-33,-8,55,0,0,0,0,0
1573491299468.75,-32,-8,54,0,0,0,0,0
1573491299500,-33,-7,53,0,0,0,0,0
1573491299531.25,-35,-4,55,0,0,0,0,0
1573491299562.5,-36,-2,56,0,0,0,0,0
1573491299593.75,-33,-2,57,0,0,0,0,0
1573491299625,-31,-2,57,0,0,0,0,0
1573491299656.25,-30,-1,57,0,0,0,0,0
1573491299687.5,-29,1,57,0,0,0,0,0
1573491299718.75,-27,2,57,0,0,0,0,0
1573491299750,-27,3,57,0,0,0,0,0
1573491299781.25,-29,1,57,0,0,0,0,0
1573491299812.5,-31,-2,56,0,0,0,0,0
1573491299843.75,-30,-4,56,0,0,0,0,0
1573491299875,-30,-6,56,0,0,0,0,0
1573491299906.25,-31,-6,56,0,0,0,0,0
1573491299937.5,-32,-5,55,0,0,0,0,0
1573491299968.75,-32,-5,55,0,0,0,0,0
1573491300000,-32,-4,55,0,0,0,0,0
1573491300031.25,-32,-3,55,0,0,0,0,0
1573491300062.5,-30,-3,57,0,0,0,0,0
1573491300093.75,-29,-2,57,0,0,0,0,0
1573491300125,-28,-3,58,0,0,0,0,0
1573491300156.25,-28,-4,58,0,0,0,0,0
1573491300187.5,-28,-4,57,0,0,0,0,0
1573491300218.75,-28,-1,57,0,0,0,0,0
1573491300250,-28,-1,57,0,0,0,0,0
1573491300281.25,-25,-2,58,0,0,0,0,0
1573491300312.5,-25,-3,58,0,0,0,0,0
1573491300343.75,-24,-4,58,0,0,0,0,0
1573491300375,-25,-4,59,0,0,0,0,0
1573491300406.25,-27,-4,57,0,0,0,0,0
1573491300437.5,-26,-5,58,0,0,0,0,0
1573491300468.75,-25,-5,59,0,0,0,0,0
1573491300500,-25,-5,59,0,0,0,0,0
1573491300531.25,-25,-5,59,0,0,0,0,0
1573491300562.5,-25,-4,58,0,0,0,0,0
1573491300593.75,-24,-4,59,0,0,0,0,0
1573491300625,-24,-3,59,0,0,0,0,0
1573491300656.25,-24,-4,59,0,0,0,0,0
1573491300687.5,-24,-4,59,0,0,0,0,0
1573491300718.75,-23,-4,59,0,0,0,0,0
1573491300750,-24,-5,59,0,0,0,0,0
1573491300781.25,-23,-4,59,0,0,0,0,0
1573491300812.5,-24,-4,59,0,0,0,0,0
1573491300843.75,-24,-4,59,0,0,0,0,0
1573491300875,-25,-4,59,0,0,0,0,0
1573491300906.25,-24,-4,59,0,0,0,0,0
1573491300937.5,-24,-5,59,0,0,0,0,0
1573491300968.75,-23,-5,59,0,0,0,0,0
1573491301000,-22,-5,60,0,0,0,0,0
1573491301031.25,-23,-4,60,0,0,0,0,0
1573491301062.5,-23,-4,60,0,0,0,0,0
1573491301093.75,-23,-4,60,0,0,0,0,0
1573491301125,-23,-4,59,0,0,0,0,0
1573491301156.25,-23,-4,60,0,0,0,0,0
1573491301187.5,-23,-4,59,0,0,0,0,0
1573491301218.75,-23,-4,60,0,0,0,0,0
1573491301250,-23,-4,60,0,0,0,0,0
1573491301281.25,-23,-4,59,0,0,0,0,0
1573491301312.5,-23,-5,59,0,0,0,0,0
1573491301343.75,-23,-5,59,0,0,0,0,0
1573491301375,-24,-4,59,0,0,0,0,0
1573491301406.25,-23,-4,59,0,0,0,0,0
1573491301437.5,-23,-4,59,0,0,0,0,0
1573491301468.75,-23,-4,59,0,0,0,0,0
1573491301500,-23,-5,59,0,0,0,0,0
1573491301531.25,-23,-5,59,0,0,0,0,0
1573491301562.5,-23,-5,59,0,0,0,0,0
1573491301593.75,-22,-4,60,0,0,0,0,0
1573491301625,-22,-4,60,0,0,0,0,0
1573491301656.25,-22,-4,60,0,0,0,0,0
1573491301687.5,-22,-5,59,0,0,0,0,0
1573491301718.75,-22,-5,59,0,0,0,0,0
1573491301750,-23,-4,59,0,0,0,0,0
1573491301781.25,-23,-5,59,0,0,0,0,0
1573491301812.5,-22,-4,60,0,0,0,0,0
1573491301843.75,-23,-4,60,0,0,0,0,0
1573491301875,-22,-4,60,0,0,0,0,0
1573491301906.25,-21,-4,60,0,0,0,0,0
1573491301937.5,-22,-4,60,0,0,0,0,0
1573491301968.75,-23,-4,59,0,0,0,0,0
1573491302000,-22,-4,59,0,0,0,0,0
1573491302031.25,-24,-4,59,0,0,0,0,0
1573491302062.5,-23,-4,60,0,0,0,0,0
1573491302093.75,-23,-3,60,0,0,0,0,0
1573491302125,-22,-4,60,0,0,0,0,0
1573491302156.25,-20,-5,60,0,0,0,0,0
1573491302187.5,-21,-5,60,0,0,0,0,0
1573491302218.75,-22,-4,60,0,0,0,0,0
1573491302250,-23,-4,60,0,0,0,0,0
1573491302281.25,-23,-4,60,0,0,0,0,0
1573491302312.5,-22,-4,60,0,0,0,0,0
1573491302343.75,-22,-4,60,0,0,0,0,0
1573491302375,-22,-4,59,0,0,0,0,0
1573491302406.25,-22,-4,59,0,0,0,0,0
1573491302437.5,-22,-4,60,0,0,0,0,0
1573491302468.75,-22,-4,60,0,0,0,0,0
1573491302500,-22,-3,61,0,0,0,0,0
1573491302531.25,-22,-3,61,0,0,0,0,0
1573491302562.5,-23,-3,60,0,0,0,0,0
1573491302593.75,-23,-3,59,0,0,0,0,0
1573491302625,-22,-3,59,0,0,0,0,0
1573491302656.25,-21,-3,59,0,0,0,0,0
1573491302687.5,-21,-4,59,0,0,0,0,0
1573491302718.75,-22,-4,60,0,0,0,0,0
1573491302750,-22,-3,60,0,0,0,0,0
1573491302781.25,-25,-3,60,0,0,0,0,0
1573491302812.5,-26,-4,60,0,0,0,0,0
1573491302843.75,-26,-4,59,0,0,0,0,0
1573491302875,-25,-4,59,0,0,0,0,0
1573491302906.25,-23,-3,60,0,0,0,0,0
1573491302937.5,-22,-3,60,0,0,0,0,0
1573491302968.75,-21,-3,60,0,0,0,0,0
1573491303000,-21,-3,60,0,0,0,0,0
1573491303031.25,-22,-3,60,0,0,0,0,0
1573491303062.5,-23,-3,60,0,0,0,0,0
1573491303093.75,-23,-3,60,0,0,0,0,0
1573491303125,-24,-2,60,0,0,0,0,0
1573491303156.25,-24,-3,60,0,0,0,0,0
1573491303187.5,-24,-3,59,0,0,0,0,0
1573491303218.75,-23,-3,59,0,0,0,0,0
1573491303250,-22,-3,60,0,0,0,0,0
1573491303281.25,-22,-3,60,0,0,0,0,0
1573491303312.5,-23,-3,60,0,0,0,0,0
1573491303343.75,-23,-3,60,0,0,0,0,0
1573491303375,-23,-3,60,0,0,0,0,0
1573491303406.25,-23,-3,59,0,0,0,0,0
1573491303437.5,-23,-3,59,0,0,0,0,0
1573491303468.75,-23,-3,59,0,0,0,0,0
1573491303500,-23,-3,59,0,0,0,0,0
1573491303531.25,-23,-2,60,0,0,0,0,0
1573491303562.5,-23,-3,60,0,0,0,0,0
1573491303593.75,-24,-3,59,0,0,0,0,0
1573491303625,-24,-3,59,0,0,0,0,0
1573491303656.25,-23,-3,60,0,0,0,0,0
1573491303687.5,-24,-2,59,0,0,0,0,0
1573491303718.75,-24,-3,59,0,0,0,0,0
1573491303750,-24,-3,59,0,0,0,0,0
1573491303781.25,-23,-3,59,0,0,0,0,0
1573491303812.5,-23,-3,60,0,0,0,0,0
1573491303843.75,-23,-3,60,0,0,0,0,0
1573491303875,-23,-2,59,0,0,0,0,0
1573491303906.25,-23,-2,59,0,0,0,0,0
1573491303937.5,-23,-3,59,0,0,0,0,0
1573491303968.75,-24,-3,59,0,0,0,0,0
1573491304000,-23,-3,59,0,0,0,0,0
1573491304031.25,-23,-3,60,0,0,0,0,0
1573491304062.5,-23,-3,59,0,0,0,0,0
1573491304093.75,-23,-3,59,0,0,0,0,0
1573491304125,-23,-3,59,0,0,0,0,0
1573491304156.25,-24,-3,59,0,0,0,0,0
1573491304187.5,-23,-3,59,0,0,0,0,0
1573491304218.75,-23,-3,59,0,0,0,0,0
1573491304250,-23,-3,60,0,0,0,0,0
1573491304281.25,-23,-3,59,0,0,0,0,0
1573491304312.5,-23,-3,59,0,0,0,0,0
1573491304343.75,-23,-3,59,0,0,0,0,0
1573491304375,-23,-3,59,0,0,0,0,0
1573491304406.25,-23,-3,60,0,0,0,0,0
1573491304437.5,-23,-3,59,0,0,0,0,0
1573491304468.75,-23,-3,59,0,0,0,0,0
1573491304500,-23,-3,59,0,0,0,0,0
1573491304531.25,-23,-3,59,0,0,0,0,0
1573491304562.5,-23,-3,59,0,0,0,0,0
1573491304593.75,-23,-3,59,0,0,0,0,0
1573491304625,-23,-3,60,0,0,0,0,0
1573491304656.25,-23,-2,60,0,0,0,0,0
1573491304687.5,-23,-3,60,0,0,0,0,0
1573491304718.75,-23,-3,60,0,0,0,0,0
1573491304750,-23,-3,60,0,0,0,0,0
1573491304781.25,-23,-3,59,0,0,0,0,0
1573491304812.5,-23,-3,60,0,0,0,0,0
1573491304843.75,-23,-2,60,0,0,0,0,0
1573491304875,-23,-3,59,0,0,0,0,0
1573491304906.25,-23,-3,59,0,0,0,0,0
1573491304937.5,-23,-3,60,0,0,0,0,0
1573491304968.75,-22,-3,59,0,0,0,0,0
1573491305000,-22,-3,60,0,0,0,0,0
1573491305031.25,-23,-3,60,0,0,0,0,0
1573491305062.5,-23,-3,60,0,0,0,0,0
1573491305093.75,-23,-3,59,0,0,0,0,0
1573491305125,-23,-3,59,0,0,0,0,0
1573491305156.25,-23,-3,60,0,0,0,0,0
1573491305187.5,-23,-3,60,0,0,0,0,0
1573491305218.75,-23,-2,60,0,0,0,0,0
1573491305250,-23,-3,59,0,0,0,0,0
1573491305281.25,-23,-3,60,0,0,0,0,0
1573491305312.5,-23,-3,60,0,0,0,0,0
1573491305343.75,-23,-3,59,0,0,0,0,0
1573491305375,-23,-2,60,0,0,0,0,0
1573491305406.25,-23,-2,60,0,0,0,0,0
1573491305437.5,-23,-3,60,0,0,0,0,0
1573491305468.75,-23,-3,60,0,0,0,0,0
1573491305500,-23,-3,59,0,0,0,0,0
1573491305531.25,-23,-3,60,0,0,0,0,0
1573491305562.5,-23,-2,60,0,0,0,0,0
1573491305593.75,-23,-2,60,0,0,0,0,0
1573491305625,-23,-3,59,0,0,0,0,0
1573491305656.25,-23,-3,60,0,0,0,0,0
1573491305687.5,-23,-3,60,0,0,0,0,0
1573491305718.75,-23,-3,60,0,0,0,0,0
1573491305750,-23,-3,60,0,0,0,0,0
1573491305781.25,-22,-3,60,0,0,0,0,0
1573491305812.5,-23,-2,60,0,0,0,0,0
1573491305843.75,-23,-3,60,0,0,0,0,0
1573491305875,-23,-3,60,0,0,0,0,0
1573491305906.25,-23,-3,59,0,0,0,0,0
1573491305937.5,-22,-3,60,0,0,0,0,0
1573491305968.75,-23,-2,60,0,0,0,0,0
1573491306000,-23,-3,59,0,0,0,0,0
1573491306031.25,-23,-2,60,0,0,0,0,0
1573491306062.5,-23,-3,59,0,0,0,0,0
1573491306093.75,-23,-3,60,0,0,0,0,0
1573491306125,-23,-2,60,0,0,0,0,0
1573491306156.25,-23,-2,60,0,0,0,0,0
1573491306187.5,-23,-2,59,0,0,0,0,0
1573491306218.75,-23,-2,59,0,0,0,0,0
1573491306250,-23,-3,59,0,0,0,0,0
1573491306281.25,-23,-2,60,0,0,0,0,0
1573491306312.5,-23,-3,60,0,0,0,0,0
1573491306343.75,-23,-3,60,0,0,0,0,0
1573491306375,-22,-2,60,0,0,0,0,0
1573491306406.25,-22,-3,60,0,0,0,0,0
1573491306437.5,-23,-2,60,0,0,0,0,0
1573491306468.75,-23,-2,60,0,0,0,0,0
1573491306500,-23,-3,60,0,0,0,0,0
1573491306531.25,-22,-3,60,0,0,0,0,0
1573491306562.5,-22,-3,59,0,0,0,0,0
1573491306593.75,-23,-2,59,0,0,0,0,0
1573491306625,-23,-4,60,0,0,0,0,0
1573491306656.25,-24,-4,59,0,0,0,0,0
1573491306687.5,-24,-3,60,0,0,0,0,0
1573491306718.75,-23,-1,59,0,0,0,0,0
1573491306750,-22,0,59,0,0,0,0,0
1573491306781.25,-20,-1,61,0,0,0,0,0
1573491306812.5,-20,-2,61,0,0,0,0,0
1573491306843.75,-22,-3,60,0,0,0,0,0
1573491306875,-23,-3,60,0,0,0,0,0
1573491306906.25,-24,-4,59,0,0,0,0,0
1573491306937.5,-23,-4,60,0,0,0,0,0
1573491306968.75,-21,-4,60,0,0,0,0,0
1573491307000,-21,-3,60,0,0,0,0,0
1573491307031.25,-22,-3,60,0,0,0,0,0
1573491307062.5,-22,-3,59,0,0,0,0,0
1573491307093.75,-22,-3,59,0,0,0,0,0
1573491307125,-23,-2,60,0,0,0,0,0
1573491307156.25,-22,-2,60,0,0,0,0,0
1573491307187.5,-22,-2,60,0,0,0,0,0
1573491307218.75,-23,-3,60,0,0,0,0,0
1573491307250,-22,-3,60,0,0,0,0,0
1573491307281.25,-22,-3,60,0,0,0,0,0
1573491307312.5,-22,-3,60,0,0,0,0,0
1573491307343.75,-22,-3,60,0,0,0,0,0
1573491307375,-23,-3,60,0,0,0,0,0
1573491307406.25,-22,-3,60,0,0,0,0,0
1573491307437.5,-22,-3,60,0,0,0,0,0
1573491307468.75,-22,-3,60,0,0,0,0,0
1573491307500,-22,-3,60,0,0,0,0,0
1573491307531.25,-21,-3,60,0,0,0,0,0
1573491307562.5,-21,-3,60,0,0,0,0,0
1573491307593.75,-22,-3,60,0,0,0,0,0
1573491307625,-22,-3,60,0,0,0,0,0
1573491307656.25,-22,-3,60,0,0,0,0,0
1573491307687.5,-22,-3,60,0,0,0,0,0
1573491307718.75,-21,-3,60,0,0,0,0,0
1573491307750,-21,-3,60,0,0,0,0,0
1573491307781.25,-22,-3,60,0,0,0,0,0
1573491307812.5,-22,-3,60,0,0,0,0,0
1573491307843.75,-22,-3,60,0,0,0,0,0
1573491307875,-21,-3,60,0,0,0,0,0
1573491307906.25,-21,-3,60,0,0,0,0,0
1573491307937.5,-22,-3,60,0,0,0,0,0
1573491307968.75,-22,-3,60,0,0,0,0,0
1573491308000,-22,-3,60,0,0,0,0,0
1573491308031.25,-22,-3,60,0,0,0,0,0
1573491308062.5,-21,-3,60,0,0,0,0,0
1573491308093.75,-22,-3,60,0,0,0,0,0
1573491308125,-22,-3,60,0,0,0,0,0
1573491308156.25,-22,-3,60,0,0,0,0,0
1573491308187.5,-22,-3,60,0,0,0,0,0
1573491308218.75,-22,-3,60,0,0,0,0,0
1573491308250,-22,-3,60,0,0,0,0,0
1573491308281.25,-22,-3,60,0,0,0,0,0
1573491308312.5,-22,-2,60,0,0,0,0,0
1573491308343.75,-21,-3,60,0,0,0,0,0
1573491308375,-22,-3,60,0,0,0,0,0
1573491308406.25,-22,-3,60,0,0,0,0,0
1573491308437.5,-23,-3,60,0,0,0,0,0
1573491308468.75,-23,-3,60,0,0,0,0,0
1573491308500,-23,-3,60,0,0,0,0,0
1573491308531.25,-22,-3,60,0,0,0,0,0
1573491308562.5,-23,-3,60,0,0,0,0,0
1573491308593.75,-22,-3,60,0,0,0,0,0
1573491308625,-21,-3,60,0,0,0,0,0
1573491308656.25,-22,-3,60,0,0,0,0,0
1573491308687.5,-22,-3,60,0,0,0,0,0
1573491308718.75,-22,-3,60,0,0,0,0,0
1573491308750,-22,-3,60,0,0,0,0,0
1573491308781.25,-22,-3,60,0,0,0,0,0
1573491308812.5,-21,-3,60,0,0,0,0,0
1573491308843.75,-22,-3,60,0,0,0,0,0
1573491308875,-21,-3,60,0,0,0,0,0
1573491308906.25,-22,-3,60,0,0,0,0,0
1573491308937.5,-23,-3,60,0,0,0,0,0
1573491308968.75,-23,-3,60,0,0,0,0,0
1573491309000,-22,-3,60,0,0,0,0,0
1573491309031.25,-22,-3,60,0,0,0,0,0
1573491309062.5,-22,-3,60,0,0,0,0,0
1573491309093.75,-21,-3,60,0,0,0,0,0
1573491309125,-21,-3,60,0,0,0,0,0
1573491309156.25,-22,-3,60,0,0,0,0,0
1573491309187.5,-23,-3,60,0,0,0,0,0
1573491309218.75,-23,-3,60,0,0,0,0,0
1573491309250,-23,-3,60,0,0,0,0,0
1573491309281.25,-22,-3,60,0,0,0,0,0
1573491309312.5,-22,-3,60,0,0,0,0,0
1573491309343.75,-22,-3,60,0,0,0,0,0
1573491309375,-22,-3,60,0,0,0,0,0
1573491309406.25,-21,-3,60,0,0,0,0,0
1573491309437.5,-22,-3,60,0,0,0,0,0
1573491309468.75,-23,-3,60,0,0,0,0,0
1573491309500,-23,-2,59,0,0,0,0,0
1573491309531.25,-23,-2,60,0,0,0,0,0
1573491309562.5,-23,-3,60,0,0,0,0,0
1573491309593.75,-23,-3,59,0,0,0,0,0
1573491309625,-22,-3,60,0,0,0,0,0
1573491309656.25,-23,-3,60,0,0,0,0,0
1573491309687.5,-22,-3,60,0,0,0,0,0
1573491309718.75,-22,-3,60,0,0,0,0,0
1573491309750,-22,-3,60,0,0,0,0,0
1573491309781.25,-23,-3,60,0,0,0,0,0
1573491309812.5,-23,-3,60,0,0,0,0,0
1573491309843.75,-23,-3,59,0,0,0,0,0
1573491309875,-22,-3,60,0,0,0,0,0
1573491309906.25,-23,-3,59,0,0,0,0,0
1573491309937.5,-23,-2,60,0,0,0,0,0
1573491309968.75,-24,-2,60,0,0,0,0,0
1573491310000,-23,-3,60,0,0,0,0,0
1573491310031.25,-22,-3,59,0,0,0,0,0
1573491310062.5,-22,-3,59,0,0,0,0,0
1573491310093.75,-23,-2,60,0,0,0,0,0
1573491310125,-22,-2,60,0,0,0,0,0
1573491310156.25,-23,-3,60,0,0,0,0,0
1573491310187.5,-24,-3,59,0,0,0,0,0
1573491310218.75,-24,-3,59,0,0,0,0,0
1573491310250,-23,-3,59,0,0,0,0,0
1573491310281.25,-22,-3,59,0,0,0,0,0
1573491310312.5,-23,-3,61,0,0,0,0,0
1573491310343.75,-24,-2,62,0,0,0,0,0
1573491310375,-23,-3,59,0,0,0,0,0
1573491310406.25,-22,-2,59,0,0,0,0,0
1573491310437.5,-21,-3,60,0,0,0,0,0
1573491310468.75,-24,-3,60,0,0,0,0,0
1573491310500,-29,-6,59,0,0,0,0,0
1573491310531.25,-32,-4,57,0,0,0,0,0
1573491310562.5,-35,-2,53,0,0,0,0,0
1573491310593.75,-32,-1,55,0,0,0,0,0
1573491310625,-25,0,58,0,0,0,0,0
1573491310656.25,-25,-2,59,0,0,0,0,0
1573491310687.5,-28,-2,58,0,0,0,0,0
1573491310718.75,-26,2,63,0,0,0,0,0
1573491310750,-26,6,66,0,0,0,0,0
1573491310781.25,-28,4,59,0,0,0,0,0
1573491310812.5,-29,2,56,0,0,0,0,0
1573491310843.75,-39,1,44,0,0,0,0,0
1573491310875,-53,0,31,0,0,0,0,0
1573491310906.25,-69,-1,16,0,0,0,0,0
1573491310937.5,-65,2,18,0,0,0,0,0
1573491310968.75,-54,6,24,0,0,0,0,0
1573491311000,-43,0,25,0,0,0,0,0
1573491311031.25,-39,-14,22,0,0,0,0,0
1573491311062.5,-45,-14,21,0,0,0,0,0
1573491311093.75,-59,-11,15,0,0,0,0,0
1573491311125,-65,-22,10,0,0,0,0,0
1573491311156.25,-71,-11,10,0,0,0,0,0
1573491311187.5,-63,-15,7,0,0,0,0,0
1573491311218.75,-67,-10,1,0,0,0,0,0
1573491311250,-82,-2,-11,0,0,0,0,0
1573491311281.25,-87,-4,-15,0,0,0,0,0
1573491311312.5,-74,1,-12,0,0,0,0,0
1573491311343.75,-67,-3,-12,0,0,0,0,0
1573491311375,-60,-4,-6,0,0,0,0,0
1573491311406.25,-59,-4,0,0,0,0,0,0
1573491311437.5,-61,-3,12,0,0,0,0,0
1573491311468.75,-68,0,21,0,0,0,0,0
1573491311500,-65,-1,20,0,0,0,0,0
1573491311531.25,-63,-10,23,0,0,0,0,0
1573491311562.5,-57,-13,23,0,0,0,0,0
1573491311593.75,-44,-16,33,0,0,0,0,0
1573491311625,-39,-19,39,0,0,0,0,0
1573491311656.25,-33,-19,45,0,0,0,0,0
1573491311687.5,-20,-16,49,0,0,0,0,0
1573491311718.75,-21,-14,42,0,0,0,0,0
1573491311750,-17,-30,36,0,0,0,0,0
1573491311781.25,7,-31,42,0,0,0,0,0
1573491311812.5,-14,-12,46,0,0,0,0,0
1573491311843.75,-36,-5,59,0,0,0,0,0
1573491311875,-38,-6,54,0,0,0,0,0
1573491311906.25,-49,-5,53,0,0,0,0,0
1573491311937.5,-55,-3,62,0,0,0,0,0
1573491311968.75,-54,-2,61,0,0,0,0,0
1573491312000,-47,4,58,0,0,0,0,0
1573491312031.25,-39,4,58,0,0,0,0,0
1573491312062.5,-14,3,62,0,0,0,0,0
1573491312093.75,-13,1,51,0,0,0,0,0
1573491312125,-20,4,65,0,0,0,0,0
1573491312156.25,-12,5,73,0,0,0,0,0
1573491312187.5,-3,-1,69,0,0,0,0,0
1573491312218.75,-9,0,60,0,0,0,0,0
1573491312250,-15,-7,60,0,0,0,0,0
1573491312281.25,-11,-5,64,0,0,0,0,0
1573491312312.5,-12,-4,63,0,0,0,0,0
1573491312343.75,-16,-2,61,0,0,0,0,0
1573491312375,-16,-2,62,0,0,0,0,0
1573491312406.25,-18,1,60,0,0,0,0,0
1573491312437.5,-19,2,60,0,0,0,0,0
1573491312468.75,-19,1,61,0,0,0,0,0
1573491312500,-17,-1,61,0,0,0,0,0
1573491312531.25,-16,-1,63,0,0,0,0,0
1573491312562.5,-15,0,63,0,0,0,0,0
1573491312593.75,-15,0,62,0,0,0,0,0
1573491312625,-15,0,62,0,0,0,0,0
1573491312656.25,-19,0,60,0,0,0,0,0
1573491312687.5,-16,0,60,0,0,0,0,0
1573491312718.75,-16,0,60,0,0,0,0,0
1573491312750,-19,2,59,0,0,0,0,0
1573491312781.25,-15,1,59,0,0,0,0,0
1573491312812.5,-17,3,60,0,0,0,0,0
1573491312843.75,-20,3,62,0,0,0,0,0
1573491312875,-15,2,63,0,0,0,0,0
1573491312906.25,-13,2,64,0,0,0,0,0
1573491312937.5,-9,2,65,0,0,0,0,0
1573491312968.75,-8,3,64,0,0,0,0,0
1573491313000,-9,4,63,0,0,0,0,0
1573491313031.25,-9,6,64,0,0,0,0,0
1573491313062.5,-10,5,62,0,0,0,0,0
1573491313093.75,-14,6,62,0,0,0,0,0
1573491313125,-15,6,65,0,0,0,0,0
1573491313156.25,-14,10,64,0,0,0,0,0
1573491313187.5,-11,10,62,0,0,0,0,0
1573491313218.75,-10,3,60,0,0,0,0,0
1573491313250,-14,8,64,0,0,0,0,0
1573491313281.25,-16,10,65,0,0,0,0,0
1573491313312.5,-17,10,64,0,0,0,0,0
1573491313343.75,-17,8,67,0,0,0,0,0
1573491313375,-21,9,64,0,0,0,0,0
1573491313406.25,-34,3,46,0,0,0,0,0
1573491313437.5,-20,4,55,0,0,0,0,0
1573491313468.75,-24,12,58,0,0,0,0,0
1573491313500,-26,14,62,0,0,0,0,0
1573491313531.25,-24,12,61,0,0,0,0,0
1573491313562.5,-23,9,57,0,0,0,0,0
1573491313593.75,-27,12,62,0,0,0,0,0
1573491313625,-25,8,59,0,0,0,0,0
1573491313656.25,-21,7,59,0,0,0,0,0
1573491313687.5,-22,8,58,0,0,0,0,0
1573491313718.75,-20,10,60,0,0,0,0,0
1573491313750,-22,10,62,0,0,0,0,0
1573491313781.25,-21,10,63,0,0,0,0,0
1573491313812.5,-16,11,64,0,0,0,0,0
1573491313843.75,-14,10,63,0,0,0,0,0
1573491313875,-15,7,57,0,0,0,0,0
1573491313906.25,-19,8,60,0,0,0,0,0
1573491313937.5,-17,7,62,0,0,0,0,0
1573491313968.75,-14,6,58,0,0,0,0,0
1573491314000,-11,9,58,0,0,0,0,0
1573491314031.25,-27,7,54,0,0,0,0,0
1573491314062.5,-26,13,60,0,0,0,0,0
1573491314093.75,-27,12,61,0,0,0,0,0
1573491314125,-18,7,64,0,0,0,0,0
1573491314156.25,-19,8,63,0,0,0,0,0
1573491314187.5,-16,11,63,0,0,0,0,0
1573491314218.75,-16,10,61,0,0,0,0,0
1573491314250,-15,10,62,0,0,0,0,0
1573491314281.25,-11,11,67,0,0,0,0,0
1573491314312.5,-30,10,57,0,0,0,0,0
1573491314343.75,-29,10,56,0,0,0,0,0
1573491314375,-19,8,57,0,0,0,0,0
1573491314406.25,-11,7,58,0,0,0,0,0
1573491314437.5,-12,11,64,0,0,0,0,0
1573491314468.75,-11,13,65,0,0,0,0,0
1573491314500,-16,12,61,0,0,0,0,0
1573491314531.25,-15,10,60,0,0,0,0,0
1573491314562.5,-14,7,61,0,0,0,0,0
1573491314593.75,-16,7,61,0,0,0,0,0
1573491314625,-18,10,63,0,0,0,0,0
1573491314656.25,-19,12,61,0,0,0,0,0
1573491314687.5,-14,10,60,0,0,0,0,0
1573491314718.75,-15,8,62,0,0,0,0,0
1573491314750,-17,10,62,0,0,0,0,0
1573491314781.25,-18,8,60,0,0,0,0,0
1573491314812.5,-15,8,61,0,0,0,0,0
1573491314843.75,-14,9,62,0,0,0,0,0
1573491314875,-14,9,61,0,0,0,0,0
1573491314906.25,-17,10,61,0,0,0,0,0
1573491314937.5,-17,9,62,0,0,0,0,0
1573491314968.75,-17,9,61,0,0,0,0,0
1573491315000,-18,10,60,0,0,0,0,0
1573491315031.25,-17,8,61,0,0,0,0,0
1573491315062.5,-16,8,60,0,0,0,0,0
1573491315093.75,-14,10,62,0,0,0,0,0
1573491315125,-16,10,61,0,0,0,0,0
1573491315156.25,-17,10,61,0,0,0,0,0
1573491315187.5,-17,9,60,0,0,0,0,0
1573491315218.75,-13,9,62,0,0,0,0,0
1573491315250,-16,10,64,0,0,0,0,0
1573491315281.25,-15,11,62,0,0,0,0,0
1573491315312.5,-20,11,60,0,0,0,0,0
1573491315343.75,-16,11,61,0,0,0,0,0
1573491315375,-19,10,58,0,0,0,0,0
1573491315406.25,-24,9,58,0,0,0,0,0
1573491315437.5,-24,9,58,0,0,0,0,0
1573491315468.75,-27,7,54,0,0,0,0,0
1573491315500,-24,11,59,0,0,0,0,0
1573491315531.25,-22,11,61,0,0,0,0,0
1573491315562.5,-20,12,61,0,0,0,0,0
1573491315593.75,-19,11,59,0,0,0,0,0
1573491315625,-20,10,59,0,0,0,0,0
1573491315656.25,-22,10,59,0,0,0,0,0
1573491315687.5,-21,11,60,0,0,0,0,0
1573491315718.75,-20,11,60,0,0,0,0,0
1573491315750,-21,11,60,0,0,0,0,0
1573491315781.25,-22,11,59,0,0,0,0,0
1573491315812.5,-22,11,60,0,0,0,0,0
1573491315843.75,-22,10,60,0,0,0,0,0
1573491315875,-19,9,59,0,0,0,0,0
1573491315906.25,-17,9,60,0,0,0,0,0
1573491315937.5,-22,7,58,0,0,0,0,0
1573491315968.75,-19,9,60,0,0,0,0,0
1573491316000,-19,9,61,0,0,0,0,0
1573491316031.25,-17,11,62,0,0,0,0,0
1573491316062.5,-17,8,60,0,0,0,0,0
1573491316093.75,-18,10,61,0,0,0,0,0
1573491316125,-19,8,60,0,0,0,0,0
1573491316156.25,-20,11,61,0,0,0,0,0
1573491316187.5,-18,12,60,0,0,0,0,0
1573491316218.75,-17,8,59,0,0,0,0,0
1573491316250,-23,7,61,0,0,0,0,0
1573491316281.25,-18,9,59,0,0,0,0,0
1573491316312.5,-17,9,57,0,0,0,0,0
1573491316343.75,-23,10,60,0,0,0,0,0
1573491316375,-23,10,61,0,0,0,0,0
1573491316406.25,-18,10,60,0,0,0,0,0
1573491316437.5,-17,10,61,0,0,0,0,0
1573491316468.75,-17,11,62,0,0,0,0,0
1573491316500,-19,11,61,0,0,0,0,0
1573491316531.25,-23,10,59,0,0,0,0,0
1573491316562.5,-23,10,58,0,0,0,0,0
1573491316593.75,-22,10,59,0,0,0,0,0
1573491316625,-22,10,59,0,0,0,0,0
1573491316656.25,-23,12,60,0,0,0,0,0
1573491316687.5,-24,12,58,0,0,0,0,0
1573491316718.75,-25,12,58,0,0,0,0,0
1573491316750,-25,11,60,0,0,0,0,0
1573491316781.25,-23,10,60,0,0,0,0,0
1573491316812.5,-22,9,59,0,0,0,0,0
1573491316843.75,-23,9,59,0,0,0,0,0
1573491316875,-26,9,57,0,0,0,0,0
1573491316906.25,-27,9,57,0,0,0,0,0
1573491316937.5,-28,9,56,0,0,0,0,0
1573491316968.75,-28,9,55,0,0,0,0,0
1573491317000,-28,10,55,0,0,0,0,0
1573491317031.25,-29,10,55,0,0,0,0,0
1573491317062.5,-28,12,54,0,0,0,0,0
1573491317093.75,-34,12,61,0,0,0,0,0
1573491317125,-35,11,57,0,0,0,0,0
1573491317156.25,-30,10,53,0,0,0,0,0
1573491317187.5,-28,10,53,0,0,0,0,0
1573491317218.75,-26,10,58,0,0,0,0,0
1573491317250,-26,10,58,0,0,0,0,0
1573491317281.25,-25,9,55,0,0,0,0,0
1573491317312.5,-26,9,55,0,0,0,0,0
1573491317343.75,-25,12,63,0,0,0,0,0
1573491317375,-22,11,62,0,0,0,0,0
1573491317406.25,-21,11,58,0,0,0,0,0
1573491317437.5,-20,11,59,0,0,0,0,0
1573491317468.75,-23,10,58,0,0,0,0,0
1573491317500,-23,11,59,0,0,0,0,0
1573491317531.25,-24,11,60,0,0,0,0,0
1573491317562.5,-28,11,56,0,0,0,0,0
1573491317593.75,-31,12,55,0,0,0,0,0
1573491317625,-27,11,58,0,0,0,0,0
1573491317656.25,-28,10,56,0,0,0,0,0
1573491317687.5,-26,9,57,0,0,0,0,0
1573491317718.75,-26,9,58,0,0,0,0,0
1573491317750,-22,9,58,0,0,0,0,0
1573491317781.25,-24,9,58,0,0,0,0,0
1573491317812.5,-25,8,56,0,0,0,0,0
1573491317843.75,-24,8,56,0,0,0,0,0
1573491317875,-33,11,55,0,0,0,0,0
1573491317906.25,-35,11,55,0,0,0,0,0
1573491317937.5,-35,10,53,0,0,0,0,0
1573491317968.75,-35,9,51,0,0,0,0,0
1573491318000,-33,9,52,0,0,0,0,0
1573491318031.25,-33,10,53,0,0,0,0,0
1573491318062.5,-34,10,53,0,0,0,0,0
1573491318093.75,-37,11,52,0,0,0,0,0
1573491318125,-35,10,50,0,0,0,0,0
1573491318156.25,-25,9,43,0,0,0,0,0
1573491318187.5,-43,12,38,0,0,0,0,0
1573491318218.75,-53,15,50,0,0,0,0,0
1573491318250,-46,12,44,0,0,0,0,0
1573491318281.25,-52,13,22,0,0,0,0,0
1573491318312.5,-61,14,15,0,0,0,0,0
1573491318343.75,-61,13,12,0,0,0,0,0
1573491318375,-56,11,-4,0,0,0,0,0
1573491318406.25,-59,11,-12,0,0,0,0,0
1573491318437.5,-65,13,-17,0,0,0,0,0
1573491318468.75,-62,12,-18,0,0,0,0,0
1573491318500,-60,13,-27,0,0,0,0,0
1573491318531.25,-58,12,-31,0,0,0,0,0
1573491318562.5,-51,10,-37,0,0,0,0,0
1573491318593.75,-49,9,-40,0,0,0,0,0
1573491318625,-44,8,-48,0,0,0,0,0
1573491318656.25,-43,8,-51,0,0,0,0,0
1573491318687.5,-42,6,-54,0,0,0,0,0
1573491318718.75,-37,5,-53,0,0,0,0,0
1573491318750,-36,5,-52,0,0,0,0,0
1573491318781.25,-35,5,-52,0,0,0,0,0
1573491318812.5,-36,5,-53,0,0,0,0,0
1573491318843.75,-35,5,-54,0,0,0,0,0
1573491318875,-35,5,-54,0,0,0,0,0
1573491318906.25,-33,5,-53,0,0,0,0,0
1573491318937.5,-33,5,-53,0,0,0,0,0
1573491318968.75,-35,5,-54,0,0,0,0,0
1573491319000,-35,5,-53,0,0,0,0,0
1573491319031.25,-35,5,-53,0,0,0,0,0
1573491319062.5,-35,5,-52,0,0,0,0,0
1573491319093.75,-36,6,-52,0,0,0,0,0
1573491319125,-37,6,-53,0,0,0,0,0
1573491319156.25,-37,5,-53,0,0,0,0,0
1573491319187.5,-36,5,-53,0,0,0,0,0
1573491319218.75,-36,5,-53,0,0,0,0,0
1573491319250,-36,5,-52,0,0,0,0,0
1573491319281.25,-36,5,-51,0,0,0,0,0
1573491319312.5,-38,5,-52,0,0,0,0,0
1573491319343.75,-37,6,-51,0,0,0,0,0
1573491319375,-37,6,-51,0,0,0,0,0
1573491319406.25,-37,6,-51,0,0,0,0,0
1573491319437.5,-36,5,-52,0,0,0,0,0
1573491319468.75,-35,6,-49,0,0,0,0,0
1573491319500,-34,4,-54,0,0,0,0,0
1573491319531.25,-37,5,-51,0,0,0,0,0
1573491319562.5,-37,5,-52,0,0,0,0,0
1573491319593.75,-35,5,-54,0,0,0,0,0
1573491319625,-36,5,-54,0,0,0,0,0
1573491319656.25,-36,5,-53,0,0,0,0,0
1573491319687.5,-36,5,-53,0,0,0,0,0
1573491319718.75,-36,5,-53,0,0,0,0,0
1573491319750,-36,4,-53,0,0,0,0,0
1573491319781.25,-36,5,-53,0,0,0,0,0
1573491319812.5,-35,4,-53,0,0,0,0,0
1573491319843.75,-36,5,-53,0,0,0,0,0
1573491319875,-35,6,-53,0,0,0,0,0
1573491319906.25,-34,6,-53,0,0,0,0,0
1573491319937.5,-34,6,-53,0,0,0,0,0
1573491319968.75,-33,5,-54,0,0,0,0,0
1573491320000,-32,4,-53,0,0,0,0,0
1573491320031.25,-32,4,-53,0,0,0,0,0
1573491320062.5,-32,4,-55,0,0,0,0,0
1573491320093.75,-31,4,-56,0,0,0,0,0
1573491320125,-30,4,-57,0,0,0,0,0
1573491320156.25,-29,4,-57,0,0,0,0,0
1573491320187.5,-30,5,-57,0,0,0,0,0
1573491320218.75,-29,4,-56,0,0,0,0,0
1573491320250,-29,4,-55,0,0,0,0,0
1573491320281.25,-28,4,-57,0,0,0,0,0
1573491320312.5,-26,5,-58,0,0,0,0,0
1573491320343.75,-28,4,-58,0,0,0,0,0
1573491320375,-30,4,-57,0,0,0,0,0
1573491320406.25,-29,3,-56,0,0,0,0,0
1573491320437.5,-28,4,-56,0,0,0,0,0
1573491320468.75,-30,5,-55,0,0,0,0,0
1573491320500,-29,5,-55,0,0,0,0,0
1573491320531.25,-28,5,-57,0,0,0,0,0
1573491320562.5,-29,4,-58,0,0,0,0,0
1573491320593.75,-28,4,-58,0,0,0,0,0
1573491320625,-29,4,-57,0,0,0,0,0
1573491320656.25,-30,4,-57,0,0,0,0,0
1573491320687.5,-30,5,-57,0,0,0,0,0
1573491320718.75,-30,5,-57,0,0,0,0,0
1573491320750,-29,5,-57,0,0,0,0,0
1573491320781.25,-28,5,-57,0,0,0,0,0
1573491320812.5,-28,5,-56,0,0,0,0,0
1573491320843.75,-30,5,-56,0,0,0,0,0
1573491320875,-30,5,-55,0,0,0,0,0
1573491320906.25,-31,5,-55,0,0,0,0,0
1573491320937.5,-30,5,-57,0,0,0,0,0
1573491320968.75,-29,5,-57,0,0,0,0,0
1573491321000,-28,5,-57,0,0,0,0,0
1573491321031.25,-30,6,-59,0,0,0,0,0
1573491321062.5,-30,4,-55,0,0,0,0,0
1573491321093.75,-30,4,-54,0,0,0,0,0
1573491321125,-33,5,-53,0,0,0,0,0
1573491321156.25,-33,6,-54,0,0,0,0,0
1573491321187.5,-32,6,-56,0,0,0,0,0
1573491321218.75,-30,5,-55,0,0,0,0,0
1573491321250,-30,5,-55,0,0,0,0,0
1573491321281.25,-30,4,-56,0,0,0,0,0
1573491321312.5,-32,4,-56,0,0,0,0,0
1573491321343.75,-32,4,-55,0,0,0,0,0
1573491321375,-31,5,-55,0,0,0,0,0
1573491321406.25,-32,5,-54,0,0,0,0,0
1573491321437.5,-33,4,-55,0,0,0,0,0
1573491321468.75,-33,3,-54,0,0,0,0,0
1573491321500,-33,4,-54,0,0,0,0,0
1573491321531.25,-32,5,-55,0,0,0,0,0
1573491321562.5,-33,5,-55,0,0,0,0,0
1573491321593.75,-33,5,-55,0,0,0,0,0
1573491321625,-33,5,-54,0,0,0,0,0
1573491321656.25,-33,5,-54,0,0,0,0,0
1573491321687.5,-33,5,-54,0,0,0,0,0
1573491321718.75,-33,4,-54,0,0,0,0,0
1573491321750,-31,4,-55,0,0,0,0,0
1573491321781.25,-31,4,-55,0,0,0,0,0
1573491321812.5,-31,5,-56,0,0,0,0,0
1573491321843.75,-31,5,-55,0,0,0,0,0
1573491321875,-31,4,-55,0,0,0,0,0
1573491321906.25,-32,5,-55,0,0,0,0,0
1573491321937.5,-31,6,-56,0,0,0,0,0
1573491321968.75,-31,6,-56,0,0,0,0,0
1573491322000,-31,6,-56,0,0,0,0,0
1573491322031.25,-31,5,-56,0,0,0,0,0
1573491322062.5,-31,4,-55,0,0,0,0,0
1573491322093.75,-31,5,-55,0,0,0,0,0
1573491322125,-31,5,-55,0,0,0,0,0
1573491322156.25,-31,4,-55,0,0,0,0,0
1573491322187.5,-30,5,-55,0,0,0,0,0
1573491322218.75,-30,5,-57,0,0,0,0,0
1573491322250,-29,5,-57,0,0,0,0,0
1573491322281.25,-27,4,-57,0,0,0,0,0
1573491322312.5,-26,3,-57,0,0,0,0,0
1573491322343.75,-25,3,-56,0,0,0,0,0
1573491322375,-26,4,-58,0,0,0,0,0
1573491322406.25,-25,4,-60,0,0,0,0,0
1573491322437.5,-23,4,-59,0,0,0,0,0
1573491322468.75,-24,3,-59,0,0,0,0,0
1573491322500,-24,3,-59,0,0,0,0,0
1573491322531.25,-24,3,-58,0,0,0,0,0
1573491322562.5,-25,4,-58,0,0,0,0,0
1573491322593.75,-24,4,-58,0,0,0,0,0
1573491322625,-23,4,-59,0,0,0,0,0
1573491322656.25,-22,4,-59,0,0,0,0,0
1573491322687.5,-21,3,-62,0,0,0,0,0
1573491322718.75,-24,3,-59,0,0,0,0,0
1573491322750,-25,2,-58,0,0,0,0,0
1573491322781.25,-23,3,-58,0,0,0,0,0
1573491322812.5,-24,4,-58,0,0,0,0,0
1573491322843.75,-25,3,-58,0,0,0,0,0
1573491322875,-24,3,-58,0,0,0,0,0
1573491322906.25,-25,3,-57,0,0,0,0,0
1573491322937.5,-26,3,-58,0,0,0,0,0
1573491322968.75,-27,4,-59,0,0,0,0,0
1573491323000,-25,4,-58,0,0,0,0,0
1573491323031.25,-25,5,-58,0,0,0,0,0
1573491323062.5,-24,4,-59,0,0,0,0,0
1573491323093.75,-19,5,-58,0,0,0,0,0
1573491323125,-24,4,-59,0,0,0,0,0
1573491323156.25,-29,2,-59,0,0,0,0,0
1573491323187.5,-25,2,-56,0,0,0,0,0
1573491323218.75,-25,3,-56,0,0,0,0,0
1573491323250,-25,4,-57,0,0,0,0,0
1573491323281.25,-26,4,-58,0,0,0,0,0
1573491323312.5,-25,3,-59,0,0,0,0,0
1573491323343.75,-23,3,-59,0,0,0,0,0
1573491323375,-25,3,-58,0,0,0,0,0
1573491323406.25,-25,3,-58,0,0,0,0,0
1573491323437.5,-26,3,-58,0,0,0,0,0
1573491323468.75,-25,3,-58,0,0,0,0,0
1573491323500,-26,3,-59,0,0,0,0,0
1573491323531.25,-24,3,-58,0,0,0,0,0
1573491323562.5,-25,3,-59,0,0,0,0,0
1573491323593.75,-26,3,-57,0,0,0,0,0
1573491323625,-25,3,-57,0,0,0,0,0
1573491323656.25,-25,3,-58,0,0,0,0,0
1573491323687.5,-25,3,-58,0,0,0,0,0
1573491323718.75,-25,3,-59,0,0,0,0,0
1573491323750,-25,3,-59,0,0,0,0,0
1573491323781.25,-24,3,-58,0,0,0,0,0
1573491323812.5,-25,2,-58,0,0,0,0,0
1573491323843.75,-26,2,-58,0,0,0,0,0
1573491323875,-25,3,-58,0,0,0,0,0
1573491323906.25,-24,3,-58,0,0,0,0,0
1573491323937.5,-25,3,-59,0,0,0,0,0
1573491323968.75,-25,3,-59,0,0,0,0,0
1573491324000,-24,2,-58,0,0,0,0,0
1573491324031.25,-24,3,-58,0,0,0,0,0
1573491324062.5,-25,2,-58,0,0,0,0,0
1573491324093.75,-24,2,-59,0,0,0,0,0
1573491324125,-25,3,-60,0,0,0,0,0
1573491324156.25,-27,3,-60,0,0,0,0,0
1573491324187.5,-28,3,-59,0,0,0,0,0
1573491324218.75,-28,3,-58,0,0,0,0,0
1573491324250,-29,3,-56,0,0,0,0,0
1573491324281.25,-30,3,-55,0,0,0,0,0
1573491324312.5,-31,3,-53,0,0,0,0,0
1573491324343.75,-35,3,-55,0,0,0,0,0
1573491324375,-36,3,-54,0,0,0,0,0
1573491324406.25,-38,3,-53,0,0,0,0,0
1573491324437.5,-41,4,-54,0,0,0,0,0
1573491324468.75,-46,4,-52,0,0,0,0,0
1573491324500,-44,4,-49,0,0,0,0,0
1573491324531.25,-45,4,-44,0,0,0,0,0
1573491324562.5,-48,5,-41,0,0,0,0,0
1573491324593.75,-45,4,-33,0,0,0,0,0
1573491324625,-48,5,-32,0,0,0,0,0
1573491324656.25,-54,5,-33,0,0,0,0,0
1573491324687.5,-56,5,-33,0,0,0,0,0
1573491324718.75,-56,6,-32,0,0,0,0,0
1573491324750,-56,5,-31,0,0,0,0,0
1573491324781.25,-55,7,-26,0,0,0,0,0
1573491324812.5,-59,7,-22,0,0,0,0,0
1573491324843.75,-60,6,-22,0,0,0,0,0
1573491324875,-61,7,-19,0,0,0,0,0
1573491324906.25,-62,8,-16,0,0,0,0,0
1573491324937.5,-61,7,-14,0,0,0,0,0
1573491324968.75,-61,8,-12,0,0,0,0,0
1573491325000,-61,7,-11,0,0,0,0,0
1573491325031.25,-64,8,-9,0,0,0,0,0
1573491325062.5,-62,8,-4,0,0,0,0,0
1573491325093.75,-63,7,-3,0,0,0,0,0
1573491325125,-63,8,1,0,0,0,0,0
1573491325156.25,-64,8,5,0,0,0,0,0
1573491325187.5,-63,9,7,0,0,0,0,0
1573491325218.75,-62,9,9,0,0,0,0,0
1573491325250,-66,9,8,0,0,0,0,0
1573491325281.25,-61,9,13,0,0,0,0,0
1573491325312.5,-62,8,14,0,0,0,0,0
1573491325343.75,-62,9,15,0,0,0,0,0
1573491325375,-61,8,15,0,0,0,0,0
1573491325406.25,-62,9,21,0,0,0,0,0
1573491325437.5,-63,9,19,0,0,0,0,0
1573491325468.75,-55,7,28,0,0,0,0,0
1573491325500,-56,7,30,0,0,0,0,0
1573491325531.25,-49,6,35,0,0,0,0,0
1573491325562.5,-50,6,37,0,0,0,0,0
1573491325593.75,-50,7,38,0,0,0,0,0
1573491325625,-47,7,39,0,0,0,0,0
1573491325656.25,-48,6,42,0,0,0,0,0
1573491325687.5,-47,6,44,0,0,0,0,0
1573491325718.75,-44,6,45,0,0,0,0,0
1573491325750,-40,4,47,0,0,0,0,0
1573491325781.25,-41,4,46,0,0,0,0,0
1573491325812.5,-42,4,46,0,0,0,0,0
1573491325843.75,-40,4,47,0,0,0,0,0
1573491325875,-39,4,47,0,0,0,0,0
1573491325906.25,-36,4,50,0,0,0,0,0
1573491325937.5,-35,4,53,0,0,0,0,0
1573491325968.75,-37,6,54,0,0,0,0,0
1573491326000,-35,7,55,0,0,0,0,0
1573491326031.25,-32,7,56,0,0,0,0,0
1573491326062.5,-32,7,56,0,0,0,0,0
1573491326093.75,-30,7,56,0,0,0,0,0
1573491326125,-31,7,56,0,0,0,0,0
1573491326156.25,-33,8,54,0,0,0,0,0
1573491326187.5,-33,8,54,0,0,0,0,0
1573491326218.75,-34,9,54,0,0,0,0,0
1573491326250,-36,5,54,0,0,0,0,0
1573491326281.25,-32,4,55,0,0,0,0,0
1573491326312.5,-31,9,56,0,0,0,0,0
1573491326343.75,-32,8,55,0,0,0,0,0
1573491326375,-31,8,55,0,0,0,0,0
1573491326406.25,-29,7,54,0,0,0,0,0
1573491326437.5,-32,8,55,0,0,0,0,0
1573491326468.75,-33,8,55,0,0,0,0,0
1573491326500,-33,8,55,0,0,0,0,0
1573491326531.25,-33,7,54,0,0,0,0,0
1573491326562.5,-33,8,54,0,0,0,0,0
1573491326593.75,-32,7,53,0,0,0,0,0
1573491326625,-33,8,55,0,0,0,0,0
1573491326656.25,-32,8,54,0,0,0,0,0
1573491326687.5,-32,9,55,0,0,0,0,0
1573491326718.75,-33,8,53,0,0,0,0,0
1573491326750,-33,8,53,0,0,0,0,0
1573491326781.25,-34,9,53,0,0,0,0,0
1573491326812.5,-37,10,52,0,0,0,0,0
1573491326843.75,-33,8,53,0,0,0,0,0
1573491326875,-28,6,52,0,0,0,0,0
1573491326906.25,-29,8,52,0,0,0,0,0
1573491326937.5,-39,11,50,0,0,0,0,0
1573491326968.75,-52,14,45,0,0,0,0,0
1573491327000,-52,13,42,0,0,0,0,0
1573491327031.25,-49,11,40,0,0,0,0,0
1573491327062.5,-45,11,41,0,0,0,0,0
1573491327093.75,-46,11,42,0,0,0,0,0
1573491327125,-46,12,42,0,0,0,0,0
1573491327156.25,-47,12,41,0,0,0,0,0
1573491327187.5,-51,12,37,0,0,0,0,0
1573491327218.75,-52,12,36,0,0,0,0,0
1573491327250,-53,12,35,0,0,0,0,0
1573491327281.25,-53,13,36,0,0,0,0,0
1573491327312.5,-50,12,37,0,0,0,0,0
1573491327343.75,-50,12,37,0,0,0,0,0
1573491327375,-50,12,37,0,0,0,0,0
1573491327406.25,-50,12,37,0,0,0,0,0
1573491327437.5,-51,12,36,0,0,0,0,0
1573491327468.75,-52,12,35,0,0,0,0,0
1573491327500,-52,12,35,0,0,0,0,0
1573491327531.25,-51,12,36,0,0,0,0,0
1573491327562.5,-51,12,36,0,0,0,0,0
1573491327593.75,-51,12,36,0,0,0,0,0
1573491327625,-51,12,35,0,0,0,0,0
1573491327656.25,-52,12,35,0,0,0,0,0
1573491327687.5,-51,12,35,0,0,0,0,0
1573491327718.75,-51,12,36,0,0,0,0,0
1573491327750,-51,12,36,0,0,0,0,0
1573491327781.25,-51,12,35,0,0,0,0,0
1573491327812.5,-51,12,35,0,0,0,0,0
1573491327843.75,-51,12,36,0,0,0,0,0
1573491327875,-51,12,35,0,0,0,0,0
1573491327906.25,-51,12,35,0,0,0,0,0
1573491327937.5,-51,12,35,0,0,0,0,0
1573491327968.75,-51,12,35,0,0,0,0,0
1573491328000,-51,13,36,0,0,0,0,0
1573491328031.25,-52,12,35,0,0,0,0,0
1573491328062.5,-52,12,35,0,0,0,0,0
1573491328093.75,-52,12,35,0,0,0,0,0
1573491328125,-51,12,35,0,0,0,0,0
1573491328156.25,-51,12,35,0,0,0,0,0
1573491328187.5,-51,12,35,0,0,0,0,0
1573491328218.75,-52,12,35,0,0,0,0,0
1573491328250,-52,12,35,0,0,0,0,0
1573491328281.25,-52,12,35,0,0,0,0,0
1573491328312.5,-52,12,35,0,0,0,0,0
1573491328343.75,-52,12,36,0,0,0,0,0
1573491328375,-52,13,36,0,0,0,0,0
1573491328406.25,-51,13,38,0,0,0,0,0
1573491328437.5,-48,14,41,0,0,0,0,0
1573491328468.75,-47,14,42,0,0,0,0,0
1573491328500,-48,2,43,0,0,0,0,0
1573491328531.25,-61,31,34,0,0,0,0,0
1573491328562.5,-57,28,42,0,0,0,0,0
1573491328593.75,-57,16,50,0,0,0,0,0
1573491328625,-48,34,49,0,0,0,0,0
1573491328656.25,-40,19,49,0,0,0,0,0
1573491328687.5,-46,19,48,0,0,0,0,0
1573491328718.75,-54,23,40,0,0,0,0,0
1573491328750,-55,22,34,0,0,0,0,0
1573491328781.25,-55,15,31,0,0,0,0,0
1573491328812.5,-55,9,30,0,0,0,0,0
1573491328843.75,-56,6,30,0,0,0,0,0
1573491328875,-63,1,29,0,0,0,0,0
1573491328906.25,-66,0,25,0,0,0,0,0
1573491328937.5,-56,-6,16,0,0,0,0,0
1573491328968.75,-52,-9,8,0,0,0,0,0
1573491329000,-54,-14,-2,0,0,0,0,0
1573491329031.25,-56,-11,-2,0,0,0,0,0
1573491329062.5,-55,-10,-7,0,0,0,0,0
1573491329093.75,-55,-13,-12,0,0,0,0,0
1573491329125,-52,-22,-27,0,0,0,0,0
1573491329156.25,-59,-24,-34,0,0,0,0,0
1573491329187.5,-75,-22,-31,0,0,0,0,0
1573491329218.75,-94,-24,-21,0,0,0,0,0
1573491329250,-101,-24,-15,0,0,0,0,0
1573491329281.25,-66,-18,-16,0,0,0,0,0
1573491329312.5,-48,-20,-18,0,0,0,0,0
1573491329343.75,-27,-13,-11,0,0,0,0,0
1573491329375,-30,-11,-11,0,0,0,0,0
1573491329406.25,-60,-2,-21,0,0,0,0,0
1573491329437.5,-70,1,-20,0,0,0,0,0
1573491329468.75,-67,5,-6,0,0,0,0,0
1573491329500,-61,7,1,0,0,0,0,0
1573491329531.25,-48,10,13,0,0,0,0,0
1573491329562.5,-52,27,-7,0,0,0,0,0
1573491329593.75,-66,25,-28,0,0,0,0,0
1573491329625,-41,26,-30,0,0,0,0,0
1573491329656.25,-42,11,-34,0,0,0,0,0
1573491329687.5,-60,25,-59,0,0,0,0,0
1573491329718.75,-69,21,-64,0,0,0,0,0
1573491329750,-91,20,-56,0,0,0,0,0
1573491329781.25,-79,18,-56,0,0,0,0,0
1573491329812.5,-60,19,-38,0,0,0,0,0
1573491329843.75,-58,28,-24,0,0,0,0,0
1573491329875,-62,39,-17,0,0,0,0,0
1573491329906.25,-63,38,-18,0,0,0,0,0
1573491329937.5,-54,36,-4,0,0,0,0,0
1573491329968.75,-53,30,1,0,0,0,0,0
1573491330000,-59,25,2,0,0,0,0,0
1573491330031.25,-59,18,31,0,0,0,0,0
1573491330062.5,-45,15,50,0,0,0,0,0
1573491330093.75,-49,19,57,0,0,0,0,0
1573491330125,-68,22,34,0,0,0,0,0
1573491330156.25,-55,23,48,0,0,0,0,0
1573491330187.5,-46,27,69,0,0,0,0,0
1573491330218.75,-45,28,76,0,0,0,0,0
1573491330250,-53,33,65,0,0,0,0,0
1573491330281.25,-64,22,31,0,0,0,0,0
1573491330312.5,-49,12,26,0,0,0,0,0
1573491330343.75,-37,-5,49,0,0,0,0,0
1573491330375,-14,-9,64,0,0,0,0,0
1573491330406.25,-34,-16,38,0,0,0,0,0
1573491330437.5,-31,-14,9,0,0,0,0,0
1573491330468.75,-21,-19,-17,0,0,0,0,0
1573491330500,-9,-39,6,0,0,0,0,0
1573491330531.25,-18,-40,21,0,0,0,0,0
1573491330562.5,1,-44,29,0,0,0,0,0
1573491330593.75,-1,-42,28,0,0,0,0,0
1573491330625,2,-56,2,0,0,0,0,0
1573491330656.25,8,-58,-4,0,0,0,0,0
1573491330687.5,1,-63,-32,0,0,0,0,0
1573491330718.75,2,-66,-47,0,0,0,0,0
1573491330750,-42,14,-52,0,0,0,0,0
1573491330781.25,-50,93,-25,0,0,0,0,0
1573491330812.5,-31,70,2,0,0,0,0,0
1573491330843.75,-12,39,11,0,0,0,0,0
1573491330875,-8,12,6,0,0,0,0,0
1573491330906.25,22,-50,-15,0,0,0,0,0
1573491330937.5,52,-68,-17,0,0,0,0,0
1573491330968.75,112,-104,-57,0,0,0,0,0
1573491331000,120,-98,-65,0,0,0,0,0
1573491331031.25,127,-49,-28,0,0,0,0,0
1573491331062.5,93,-29,12,0,0,0,0,0
1573491331093.75,-33,-8,125,0,0,0,0,0
1573491331125,-43,-4,127,0,0,0,0,0
1573491331156.25,1,-1,116,0,0,0,0,0
1573491331187.5,43,12,89,0,0,0,0,0
1573491331218.75,59,8,75,0,0,0,0,0
1573491331250,61,5,56,0,0,0,0,0
1573491331281.25,57,12,60,0,0,0,0,0
1573491331312.5,45,14,53,0,0,0,0,0
1573491331343.75,30,13,53,0,0,0,0,0
1573491331375,21,34,78,0,0,0,0,0
1573491331406.25,36,46,89,0,0,0,0,0
1573491331437.5,59,55,81,0,0,0,0,0
1573491331468.75,68,57,65,0,0,0,0,0
1573491331500,74,53,60,0,0,0,0,0
1573491331531.25,51,51,65,0,0,0,0,0
1573491331562.5,50,46,75,0,0,0,0,0
1573491331593.75,33,49,69,0,0,0,0,0
1573491331625,13,44,57,0,0,0,0,0
1573491331656.25,4,27,54,0,0,0,0,0
1573491331687.5,17,21,51,0,0,0,0,0
1573491331718.75,25,15,53,0,0,0,0,0
1573491331750,30,15,51,0,0,0,0,0
1573491331781.25,24,7,42,0,0,0,0,0
1573491331812.5,31,-2,37,0,0,0,0,0
1573491331843.75,41,-7,32,0,0,0,0,0
1573491331875,40,-9,39,0,0,0,0,0
1573491331906.25,52,-20,37,0,0,0,0,0
1573491331937.5,51,-19,33,0,0,0,0,0
1573491331968.75,35,-16,28,0,0,0,0,0
1573491332000,17,-19,34,0,0,0,0,0
1573491332031.25,7,-14,36,0,0,0,0,0
1573491332062.5,-7,-12,29,0,0,0,0,0
1573491332093.75,-10,-8,33,0,0,0,0,0
1573491332125,11,-26,29,0,0,0,0,0
1573491332156.25,23,-38,21,0,0,0,0,0
1573491332187.5,17,-43,12,0,0,0,0,0
1573491332218.75,13,-44,12,0,0,0,0,0
1573491332250,4,-66,4,0,0,0,0,0
1573491332281.25,18,-79,2,0,0,0,0,0
1573491332312.5,19,-74,-5,0,0,0,0,0
1573491332343.75,19,-71,-12,0,0,0,0,0
1573491332375,33,-53,-27,0,0,0,0,0
1573491332406.25,18,-37,-33,0,0,0,0,0
1573491332437.5,26,-36,-29,0,0,0,0,0
1573491332468.75,16,-36,-18,0,0,0,0,0
1573491332500,15,-30,-8,0,0,0,0,0
1573491332531.25,23,-10,-1,0,0,0,0,0
1573491332562.5,24,-3,-4,0,0,0,0,0
1573491332593.75,52,4,3,0,0,0,0,0
1573491332625,81,5,5,0,0,0,0,0
1573491332656.25,113,8,-42,0,0,0,0,0
1573491332687.5,37,26,-49,0,0,0,0,0
1573491332718.75,5,32,65,0,0,0,0,0
1573491332750,-38,44,101,0,0,0,0,0
1573491332781.25,-53,41,116,0,0,0,0,0
1573491332812.5,-9,24,124,0,0,0,0,0
1573491332843.75,35,12,102,0,0,0,0,0
1573491332875,69,26,71,0,0,0,0,0
1573491332906.25,49,18,75,0,0,0,0,0
1573491332937.5,-48,12,70,0,0,0,0,0
1573491332968.75,-56,15,71,0,0,0,0,0
1573491333000,-44,9,50,0,0,0,0,0
1573491333031.25,-44,4,71,0,0,0,0,0
1573491333062.5,-42,17,84,0,0,0,0,0
1573491333093.75,-14,2,66,0,0,0,0,0
1573491333125,-35,22,37,0,0,0,0,0
1573491333156.25,-36,14,40,0,0,0,0,0
1573491333187.5,-43,3,40,0,0,0,0,0
1573491333218.75,-47,1,43,0,0,0,0,0
1573491333250,-53,4,50,0,0,0,0,0
1573491333281.25,-57,5,49,0,0,0,0,0
1573491333312.5,-41,1,50,0,0,0,0,0
1573491333343.75,-48,13,65,0,0,0,0,0
1573491333375,-58,15,70,0,0,0,0,0
1573491333406.25,-39,11,56,0,0,0,0,0
1573491333437.5,-31,12,47,0,0,0,0,0
1573491333468.75,-12,19,33,0,0,0,0,0
1573491333500,-15,20,33,0,0,0,0,0
1573491333531.25,-40,24,58,0,0,0,0,0
1573491333562.5,-34,30,65,0,0,0,0,0
1573491333593.75,-39,29,42,0,0,0,0,0
1573491333625,-39,30,62,0,0,0,0,0
1573491333656.25,-26,24,63,0,0,0,0,0
1573491333687.5,-22,34,80,0,0,0,0,0
1573491333718.75,-16,39,82,0,0,0,0,0
1573491333750,-13,36,65,0,0,0,0,0
1573491333781.25,-30,35,58,0,0,0,0,0
1573491333812.5,-34,31,42,0,0,0,0,0
1573491333843.75,3,34,51,0,0,0,0,0
1573491333875,-5,34,46,0,0,0,0,0
1573491333906.25,-13,36,42,0,0,0,0,0
1573491333937.5,-6,38,40,0,0,0,0,0
1573491333968.75,5,45,30,0,0,0,0,0
1573491334000,14,40,29,0,0,0,0,0
1573491334031.25,1,44,24,0,0,0,0,0
1573491334062.5,-1,40,42,0,0,0,0,0
1573491334093.75,-21,26,52,0,0,0,0,0
1573491334125,-17,21,60,0,0,0,0,0
1573491334156.25,42,14,62,0,0,0,0,0
1573491334187.5,4,23,54,0,0,0,0,0
1573491334218.75,-49,32,48,0,0,0,0,0
1573491334250,-36,32,49,0,0,0,0,0
1573491334281.25,-18,41,54,0,0,0,0,0
1573491334312.5,-19,37,44,0,0,0,0,0
1573491334343.75,-15,47,70,0,0,0,0,0
1573491334375,-34,54,50,0,0,0,0,0
1573491334406.25,-43,51,53,0,0,0,0,0
1573491334437.5,-36,32,51,0,0,0,0,0
1573491334468.75,-32,24,53,0,0,0,0,0
1573491334500,-53,21,41,0,0,0,0,0
1573491334531.25,-50,18,37,0,0,0,0,0
1573491334562.5,-40,12,28,0,0,0,0,0
1573491334593.75,-81,6,4,0,0,0,0,0
1573491334625,-87,-6,-7,0,0,0,0,0
1573491334656.25,-82,-10,-11,0,0,0,0,0
1573491334687.5,-95,-10,-33,0,0,0,0,0
1573491334718.75,-97,-11,-38,0,0,0,0,0
1573491334750,-88,-5,-38,0,0,0,0,0
1573491334781.25,-62,-8,-39,0,0,0,0,0
1573491334812.5,-58,-7,-45,0,0,0,0,0
1573491334843.75,-31,-10,-50,0,0,0,0,0
1573491334875,-22,-20,-47,0,0,0,0,0
1573491334906.25,-34,-8,-59,0,0,0,0,0
1573491334937.5,-41,-11,-51,0,0,0,0,0
1573491334968.75,-51,-20,-21,0,0,0,0,0
1573491335000,-69,-22,-13,0,0,0,0,0
1573491335031.25,-77,-29,6,0,0,0,0,0
1573491335062.5,-56,-32,2,0,0,0,0,0
1573491335093.75,-49,-32,-24,0,0,0,0,0
1573491335125,-55,-33,-28,0,0,0,0,0
1573491335156.25,-52,-28,-30,0,0,0,0,0
1573491335187.5,-50,-27,-31,0,0,0,0,0
1573491335218.75,-47,-24,-25,0,0,0,0,0
1573491335250,-32,-18,-18,0,0,0,0,0
1573491335281.25,-33,-13,-12,0,0,0,0,0
1573491335312.5,-24,-5,8,0,0,0,0,0
1573491335343.75,-32,-6,4,0,0,0,0,0
1573491335375,-46,-13,3,0,0,0,0,0
1573491335406.25,-59,-10,0,0,0,0,0,0
1573491335437.5,-74,-17,-16,0,0,0,0,0
1573491335468.75,-75,-16,-15,0,0,0,0,0
1573491335500,-67,-10,-7,0,0,0,0,0
1573491335531.25,-63,-11,-5,0,0,0,0,0
1573491335562.5,-63,-22,3,0,0,0,0,0
1573491335593.75,-66,-22,14,0,0,0,0,0
1573491335625,-67,-23,15,0,0,0,0,0
1573491335656.25,-56,-10,15,0,0,0,0,0
1573491335687.5,-56,-2,22,0,0,0,0,0
1573491335718.75,-43,-7,32,0,0,0,0,0
1573491335750,-43,-9,30,0,0,0,0,0
1573491335781.25,-28,-16,20,0,0,0,0,0
1573491335812.5,-22,-21,19,0,0,0,0,0
1573491335843.75,10,-41,14,0,0,0,0,0
1573491335875,5,-46,10,0,0,0,0,0
1573491335906.25,-30,-40,23,0,0,0,0,0
1573491335937.5,-34,-36,24,0,0,0,0,0
1573491335968.75,-32,-33,16,0,0,0,0,0
1573491336000,-35,-24,7,0,0,0,0,0
1573491336031.25,-28,-19,-2,0,0,0,0,0
1573491336062.5,-27,-6,-7,0,0,0,0,0
1573491336093.75,-33,4,-8,0,0,0,0,0
1573491336125,-75,20,-29,0,0,0,0,0
1573491336156.25,-82,29,-36,0,0,0,0,0
1573491336187.5,-89,30,-36,0,0,0,0,0
1573491336218.75,-95,34,-33,0,0,0,0,0
1573491336250,-89,52,5,0,0,0,0,0
1573491336281.25,-95,66,44,0,0,0,0,0
1573491336312.5,-113,51,42,0,0,0,0,0
1573491336343.75,-84,37,-10,0,0,0,0,0
1573491336375,-89,40,-27,0,0,0,0,0
1573491336406.25,-70,21,26,0,0,0,0,0
1573491336437.5,-55,15,19,0,0,0,0,0
1573491336468.75,-61,5,-31,0,0,0,0,0
1573491336500,-54,9,-28,0,0,0,0,0
1573491336531.25,-73,19,-31,0,0,0,0,0
1573491336562.5,-62,25,-17,0,0,0,0,0
1573491336593.75,-60,38,-9,0,0,0,0,0
1573491336625,-58,46,2,0,0,0,0,0
1573491336656.25,-74,61,13,0,0,0,0,0
1573491336687.5,-88,68,6,0,0,0,0,0
1573491336718.75,-56,60,34,0,0,0,0,0
1573491336750,-29,45,43,0,0,0,0,0
1573491336781.25,-19,20,29,0,0,0,0,0
1573491336812.5,-17,-13,7,0,0,0,0,0
1573491336843.75,-1,-21,19,0,0,0,0,0
1573491336875,-37,-54,-67,0,0,0,0,0
1573491336906.25,-9,-25,-61,0,0,0,0,0
1573491336937.5,-9,18,-2,0,0,0,0,0
1573491336968.75,-128,77,73,0,0,0,0,0
1573491337000,-32,-52,-14,0,0,0,0,0
1573491337031.25,-26,38,40,0,0,0,0,0
1573491337062.5,3,66,33,0,0,0,0,0
1573491337093.75,-42,68,13,0,0,0,0,0
1573491337125,-24,57,18,0,0,0,0,0
1573491337156.25,-34,49,28,0,0,0,0,0
1573491337187.5,-36,40,34,0,0,0,0,0
1573491337218.75,-36,44,37,0,0,0,0,0
1573491337250,-31,42,36,0,0,0,0,0
1573491337281.25,-31,43,38,0,0,0,0,0
1573491337312.5,-36,41,34,0,0,0,0,0
1573491337343.75,-38,36,34,0,0,0,0,0
1573491337375,-40,40,34,0,0,0,0,0
1573491337406.25,-29,44,30,0,0,0,0,0
1573491337437.5,-36,44,31,0,0,0,0,0
1573491337468.75,-37,41,19,0,0,0,0,0
1573491337500,-40,47,36,0,0,0,0,0
1573491337531.25,-12,44,48,0,0,0,0,0
1573491337562.5,-31,48,38,0,0,0,0,0
1573491337593.75,-28,44,31,0,0,0,0,0
1573491337625,-24,45,41,0,0,0,0,0
1573491337656.25,-28,46,37,0,0,0,0,0
1573491337687.5,-25,49,34,0,0,0,0,0
1573491337718.75,-30,50,29,0,0,0,0,0
1573491337750,-32,48,30,0,0,0,0,0
1573491337781.25,-27,47,35,0,0,0,0,0
1573491337812.5,-34,49,29,0,0,0,0,0
1573491337843.75,-21,46,40,0,0,0,0,0
1573491337875,-28,45,36,0,0,0,0,0
1573491337906.25,-36,42,32,0,0,0,0,0
1573491337937.5,-33,45,32,0,0,0,0,0
1573491337968.75,-31,46,34,0,0,0,0,0
1573491338000,-32,48,33,0,0,0,0,0
1573491338031.25,-24,49,37,0,0,0,0,0
1573491338062.5,-28,51,36,0,0,0,0,0
1573491338093.75,-24,54,42,0,0,0,0,0
1573491338125,-19,60,49,0,0,0,0,0
1573491338156.25,-28,64,48,0,0,0,0,0
1573491338187.5,-12,62,59,0,0,0,0,0
1573491338218.75,-19,52,49,0,0,0,0,0
1573491338250,-27,49,47,0,0,0,0,0
1573491338281.25,-31,28,48,0,0,0,0,0
1573491338312.5,-31,17,47,0,0,0,0,0
1573491338343.75,-16,21,34,0,0,0,0,0
1573491338375,28,33,33,0,0,0,0,0
1573491338406.25,36,35,30,0,0,0,0,0
1573491338437.5,12,40,24,0,0,0,0,0
1573491338468.75,0,41,22,0,0,0,0,0
1573491338500,17,40,47,0,0,0,0,0
1573491338531.25,10,39,50,0,0,0,0,0
1573491338562.5,-24,40,40,0,0,0,0,0
1573491338593.75,-32,44,34,0,0,0,0,0
1573491338625,-17,57,34,0,0,0,0,0
1573491338656.25,-17,66,29,0,0,0,0,0
1573491338687.5,-20,81,12,0,0,0,0,0
1573491338718.75,-21,73,20,0,0,0,0,0
1573491338750,-27,55,44,0,0,0,0,0
1573491338781.25,-19,51,53,0,0,0,0,0
1573491338812.5,-21,52,56,0,0,0,0,0
1573491338843.75,-22,54,64,0,0,0,0,0
1573491338875,-20,58,62,0,0,0,0,0
1573491338906.25,-16,55,44,0,0,0,0,0
1573491338937.5,-5,41,31,0,0,0,0,0
1573491338968.75,-4,17,20,0,0,0,0,0
1573491339000,-8,16,28,0,0,0,0,0
1573491339031.25,-6,30,36,0,0,0,0,0
1573491339062.5,-11,38,40,0,0,0,0,0
1573491339093.75,-7,49,43,0,0,0,0,0
1573491339125,-9,51,39,0,0,0,0,0
1573491339156.25,-21,60,18,0,0,0,0,0
1573491339187.5,-9,54,25,0,0,0,0,0
1573491339218.75,-10,47,33,0,0,0,0,0
1573491339250,-43,59,47,0,0,0,0,0
1573491339281.25,-39,57,40,0,0,0,0,0
1573491339312.5,-37,62,27,0,0,0,0,0
1573491339343.75,-28,55,28,0,0,0,0,0
1573491339375,-32,51,22,0,0,0,0,0
1573491339406.25,-38,54,18,0,0,0,0,0
1573491339437.5,-25,59,18,0,0,0,0,0
1573491339468.75,-21,60,19,0,0,0,0,0
1573491339500,-22,54,27,0,0,0,0,0
1573491339531.25,-25,53,25,0,0,0,0,0
1573491339562.5,-25,50,32,0,0,0,0,0
1573491339593.75,-24,50,36,0,0,0,0,0
1573491339625,-25,50,35,0,0,0,0,0
1573491339656.25,-28,48,32,0,0,0,0,0
1573491339687.5,-27,48,33,0,0,0,0,0
1573491339718.75,-27,49,33,0,0,0,0,0
1573491339750,-28,48,33,0,0,0,0,0
1573491339781.25,-29,48,33,0,0,0,0,0
1573491339812.5,-26,47,36,0,0,0,0,0
1573491339843.75,-30,49,29,0,0,0,0,0
1573491339875,-27,49,34,0,0,0,0,0
1573491339906.25,-15,47,40,0,0,0,0,0
1573491339937.5,-24,48,36,0,0,0,0,0
1573491339968.75,-23,48,36,0,0,0,0,0
1573491340000,-21,49,37,0,0,0,0,0
1573491340031.25,-20,48,38,0,0,0,0,0
1573491340062.5,-17,48,37,0,0,0,0,0
1573491340093.75,-20,50,36,0,0,0,0,0
1573491340125,-24,52,30,0,0,0,0,0
1573491340156.25,-25,53,30,0,0,0,0,0
1573491340187.5,-25,52,30,0,0,0,0,0
1573491340218.75,-26,53,30,0,0,0,0,0
1573491340250,-26,52,33,0,0,0,0,0
1573491340281.25,-29,54,28,0,0,0,0,0
1573491340312.5,-28,51,30,0,0,0,0,0
1573491340343.75,-23,48,31,0,0,0,0,0
1573491340375,-24,32,48,0,0,0,0,0
1573491340406.25,-18,29,66,0,0,0,0,0
1573491340437.5,-15,23,57,0,0,0,0,0
1573491340468.75,-20,30,49,0,0,0,0,0
1573491340500,-27,34,47,0,0,0,0,0
1573491340531.25,-33,39,41,0,0,0,0,0
1573491340562.5,-32,42,39,0,0,0,0,0
1573491340593.75,-31,41,40,0,0,0,0,0
1573491340625,-28,39,42,0,0,0,0,0
1573491340656.25,-29,41,41,0,0,0,0,0
1573491340687.5,-30,42,40,0,0,0,0,0
1573491340718.75,-32,44,37,0,0,0,0,0
1573491340750,-33,44,36,0,0,0,0,0
1573491340781.25,-33,41,38,0,0,0,0,0
1573491340812.5,-31,40,40,0,0,0,0,0
1573491340843.75,-31,39,41,0,0,0,0,0
1573491340875,-27,38,44,0,0,0,0,0
1573491340906.25,-26,38,44,0,0,0,0,0
1573491340937.5,-23,37,47,0,0,0,0,0
1573491340968.75,-23,37,46,0,0,0,0,0
1573491341000,-24,38,45,0,0,0,0,0
1573491341031.25,-25,39,44,0,0,0,0,0
1573491341062.5,-26,40,42,0,0,0,0,0
1573491341093.75,-26,40,43,0,0,0,0,0
1573491341125,-28,41,42,0,0,0,0,0
1573491341156.25,-28,42,40,0,0,0,0,0
1573491341187.5,-28,41,41,0,0,0,0,0
1573491341218.75,-28,41,41,0,0,0,0,0
1573491341250,-27,40,42,0,0,0,0,0
1573491341281.25,-26,40,43,0,0,0,0,0
1573491341312.5,-26,40,43,0,0,0,0,0
1573491341343.75,-24,40,44,0,0,0,0,0
1573491341375,-24,40,44,0,0,0,0,0
1573491341406.25,-24,40,44,0,0,0,0,0
1573491341437.5,-24,41,43,0,0,0,0,0
1573491341468.75,-25,41,43,0,0,0,0,0
1573491341500,-25,41,43,0,0,0,0,0
1573491341531.25,-26,42,42,0,0,0,0,0
1573491341562.5,-26,42,42,0,0,0,0,0
1573491341593.75,-26,42,42,0,0,0,0,0
1573491341625,-25,41,43,0,0,0,0,0
1573491341656.25,-24,40,44,0,0,0,0,0
1573491341687.5,-24,40,44,0,0,0,0,0
1573491341718.75,-25,40,44,0,0,0,0,0
1573491341750,-24,40,44,0,0,0,0,0
1573491341781.25,-24,40,43,0,0,0,0,0
1573491341812.5,-24,41,43,0,0,0,0,0
1573491341843.75,-24,42,43,0,0,0,0,0
1573491341875,-23,42,42,0,0,0,0,0
1573491341906.25,-22,42,42,0,0,0,0,0
1573491341937.5,-24,42,42,0,0,0,0,0
1573491341968.75,-23,43,43,0,0,0,0,0
1573491342000,-23,42,42,0,0,0,0,0
1573491342031.25,-23,42,42,0,0,0,0,0
1573491342062.5,-24,42,42,0,0,0,0,0
1573491342093.75,-24,42,43,0,0,0,0,0
1573491342125,-21,42,44,0,0,0,0,0
1573491342156.25,-24,42,43,0,0,0,0,0
1573491342187.5,-21,42,44,0,0,0,0,0
1573491342218.75,-20,42,44,0,0,0,0,0
1573491342250,-21,41,45,0,0,0,0,0
1573491342281.25,-24,42,42,0,0,0,0,0
1573491342312.5,-26,42,42,0,0,0,0,0
1573491342343.75,-26,41,42,0,0,0,0,0
1573491342375,-27,41,42,0,0,0,0,0
1573491342406.25,-25,40,44,0,0,0,0,0
1573491342437.5,-23,39,45,0,0,0,0,0
1573491342468.75,-23,38,47,0,0,0,0,0
1573491342500,-22,38,47,0,0,0,0,0
1573491342531.25,-22,38,47,0,0,0,0,0
1573491342562.5,-22,39,45,0,0,0,0,0
1573491342593.75,-21,40,44,0,0,0,0,0
1573491342625,-22,40,46,0,0,0,0,0
1573491342656.25,-23,41,43,0,0,0,0,0
1573491342687.5,-26,43,40,0,0,0,0,0
1573491342718.75,-25,44,40,0,0,0,0,0
1573491342750,-25,44,40,0,0,0,0,0
1573491342781.25,-26,44,40,0,0,0,0,0
1573491342812.5,-26,43,41,0,0,0,0,0
1573491342843.75,-24,41,42,0,0,0,0,0
1573491342875,-20,39,46,0,0,0,0,0
1573491342906.25,-27,40,44,0,0,0,0,0
1573491342937.5,-17,37,52,0,0,0,0,0
1573491342968.75,-15,39,51,0,0,0,0,0
1573491343000,-21,43,47,0,0,0,0,0
1573491343031.25,-31,48,52,0,0,0,0,0
1573491343062.5,-33,60,63,0,0,0,0,0
1573491343093.75,-28,76,70,0,0,0,0,0
1573491343125,-19,76,70,0,0,0,0,0
1573491343156.25,5,56,61,0,0,0,0,0
1573491343187.5,11,47,43,0,0,0,0,0
1573491343218.75,-4,39,34,0,0,0,0,0
1573491343250,-20,32,44,0,0,0,0,0
1573491343281.25,-14,31,46,0,0,0,0,0
1573491343312.5,11,35,33,0,0,0,0,0
1573491343343.75,13,40,29,0,0,0,0,0
1573491343375,12,52,11,0,0,0,0,0
1573491343406.25,5,56,-7,0,0,0,0,0
1573491343437.5,-11,56,-7,0,0,0,0,0
1573491343468.75,-32,29,23,0,0,0,0,0
1573491343500,-51,74,91,0,0,0,0,0
1573491343531.25,-69,43,27,0,0,0,0,0
1573491343562.5,-48,49,46,0,0,0,0,0
1573491343593.75,-57,44,45,0,0,0,0,0
1573491343625,-67,53,43,0,0,0,0,0
1573491343656.25,-26,43,41,0,0,0,0,0
1573491343687.5,-9,36,29,0,0,0,0,0
1573491343718.75,-1,39,30,0,0,0,0,0
1573491343750,3,38,48,0,0,0,0,0
1573491343781.25,5,38,63,0,0,0,0,0
1573491343812.5,-20,-29,70,0,0,0,0,0
1573491343843.75,-57,44,25,0,0,0,0,0
1573491343875,-43,31,21,0,0,0,0,0
1573491343906.25,-62,33,39,0,0,0,0,0
1573491343937.5,-61,36,46,0,0,0,0,0
1573491343968.75,-16,19,55,0,0,0,0,0
1573491344000,4,1,51,0,0,0,0,0
1573491344031.25,-1,-3,43,0,0,0,0,0
1573491344062.5,-18,7,43,0,0,0,0,0
1573491344093.75,-28,16,48,0,0,0,0,0
1573491344125,-33,28,67,0,0,0,0,0
1573491344156.25,-20,23,70,0,0,0,0,0
1573491344187.5,-1,34,63,0,0,0,0,0
1573491344218.75,0,35,62,0,0,0,0,0
1573491344250,0,29,54,0,0,0,0,0
1573491344281.25,-3,28,55,0,0,0,0,0
1573491344312.5,1,34,60,0,0,0,0,0
1573491344343.75,5,32,60,0,0,0,0,0
1573491344375,16,28,59,0,0,0,0,0
1573491344406.25,11,25,63,0,0,0,0,0
1573491344437.5,-8,27,63,0,0,0,0,0
1573491344468.75,-30,46,53,0,0,0,0,0
1573491344500,7,44,64,0,0,0,0,0
1573491344531.25,96,33,64,0,0,0,0,0
1573491344562.5,22,28,49,0,0,0,0,0
1573491344593.75,-51,-5,61,0,0,0,0,0
1573491344625,-33,-3,62,0,0,0,0,0
1573491344656.25,-6,13,49,0,0,0,0,0
1573491344687.5,-7,17,45,0,0,0,0,0
1573491344718.75,-7,20,50,0,0,0,0,0
1573491344750,-7,21,55,0,0,0,0,0
1573491344781.25,-13,28,63,0,0,0,0,0
1573491344812.5,-26,29,60,0,0,0,0,0
1573491344843.75,-22,25,57,0,0,0,0,0
1573491344875,-11,20,53,0,0,0,0,0
1573491344906.25,-10,22,52,0,0,0,0,0
1573491344937.5,-6,27,62,0,0,0,0,0
1573491344968.75,-1,28,70,0,0,0,0,0
1573491345000,-1,23,72,0,0,0,0,0
1573491345031.25,-2,25,70,0,0,0,0,0
1573491345062.5,-4,15,61,0,0,0,0,0
1573491345093.75,-9,18,54,0,0,0,0,0
1573491345125,-39,24,53,0,0,0,0,0
1573491345156.25,-48,26,50,0,0,0,0,0
1573491345187.5,-43,26,35,0,0,0,0,0
1573491345218.75,-30,18,44,0,0,0,0,0
1573491345250,-22,17,51,0,0,0,0,0
1573491345281.25,-11,16,66,0,0,0,0,0
1573491345312.5,-6,16,70,0,0,0,0,0
1573491345343.75,-11,16,64,0,0,0,0,0
1573491345375,-24,19,56,0,0,0,0,0
1573491345406.25,-41,20,46,0,0,0,0,0
1573491345437.5,-35,18,47,0,0,0,0,0
1573491345468.75,-20,20,56,0,0,0,0,0
1573491345500,-15,18,61,0,0,0,0,0
1573491345531.25,-13,18,67,0,0,0,0,0
1573491345562.5,-13,18,65,0,0,0,0,0
1573491345593.75,-20,20,58,0,0,0,0,0
1573491345625,-23,21,56,0,0,0,0,0
1573491345656.25,-22,21,57,0,0,0,0,0
1573491345687.5,-21,19,56,0,0,0,0,0
1573491345718.75,-22,18,55,0,0,0,0,0
1573491345750,-20,17,55,0,0,0,0,0
1573491345781.25,-20,18,55,0,0,0,0,0
1573491345812.5,-17,18,59,0,0,0,0,0
1573491345843.75,-16,17,61,0,0,0,0,0
1573491345875,-16,16,62,0,0,0,0,0
1573491345906.25,-20,17,62,0,0,0,0,0
1573491345937.5,-31,22,59,0,0,0,0,0
1573491345968.75,-37,18,57,0,0,0,0,0
1573491346000,-38,16,56,0,0,0,0,0
1573491346031.25,-26,15,54,0,0,0,0,0
1573491346062.5,-24,13,53,0,0,0,0,0
1573491346093.75,-14,5,54,0,0,0,0,0
1573491346125,-15,4,54,0,0,0,0,0
1573491346156.25,-24,12,48,0,0,0,0,0
1573491346187.5,-26,15,49,0,0,0,0,0
1573491346218.75,-25,10,50,0,0,0,0,0
1573491346250,-22,9,55,0,0,0,0,0
1573491346281.25,-15,11,61,0,0,0,0,0
1573491346312.5,-20,13,63,0,0,0,0,0
1573491346343.75,-38,17,62,0,0,0,0,0
1573491346375,-53,20,65,0,0,0,0,0
1573491346406.25,-66,17,63,0,0,0,0,0
1573491346437.5,-66,11,35,0,0,0,0,0
1573491346468.75,-50,7,30,0,0,0,0,0
1573491346500,-44,8,27,0,0,0,0,0
1573491346531.25,-37,7,32,0,0,0,0,0
1573491346562.5,-34,11,48,0,0,0,0,0
1573491346593.75,-30,18,55,0,0,0,0,0
1573491346625,-11,24,68,0,0,0,0,0
1573491346656.25,-3,30,73,0,0,0,0,0
1573491346687.5,-19,24,64,0,0,0,0,0
1573491346718.75,-47,17,53,0,0,0,0,0
1573491346750,24,4,77,0,0,0,0,0
1573491346781.25,40,5,93,0,0,0,0,0
1573491346812.5,2,24,69,0,0,0,0,0
1573491346843.75,-11,24,65,0,0,0,0,0
1573491346875,-26,3,58,0,0,0,0,0
1573491346906.25,13,7,73,0,0,0,0,0
1573491346937.5,22,8,80,0,0,0,0,0
1573491346968.75,19,8,73,0,0,0,0,0
1573491347000,22,-4,72,0,0,0,0,0
1573491347031.25,-19,0,38,0,0,0,0,0
1573491347062.5,-59,2,16,0,0,0,0,0
1573491347093.75,-11,-9,19,0,0,0,0,0
1573491347125,19,-6,26,0,0,0,0,0
1573491347156.25,21,-1,52,0,0,0,0,0
1573491347187.5,-2,-3,58,0,0,0,0,0
1573491347218.75,-7,11,59,0,0,0,0,0
1573491347250,58,3,72,0,0,0,0,0
1573491347281.25,85,-1,71,0,0,0,0,0
1573491347312.5,74,-6,37,0,0,0,0,0
1573491347343.75,74,-6,57,0,0,0,0,0
1573491347375,30,10,58,0,0,0,0,0
1573491347406.25,4,2,27,0,0,0,0,0
1573491347437.5,62,2,57,0,0,0,0,0
1573491347468.75,67,8,75,0,0,0,0,0
1573491347500,37,0,85,0,0,0,0,0
1573491347531.25,63,-15,65,0,0,0,0,0
1573491347562.5,57,-24,28,0,0,0,0,0
1573491347593.75,56,-34,6,0,0,0,0,0
1573491347625,78,1,54,0,0,0,0,0
1573491347656.25,39,12,42,0,0,0,0,0
1573491347687.5,9,15,41,0,0,0,0,0
1573491347718.75,-17,0,36,0,0,0,0,0
1573491347750,-7,-23,19,0,0,0,0,0
1573491347781.25,30,-29,41,0,0,0,0,0
1573491347812.5,23,-19,38,0,0,0,0,0
1573491347843.75,3,-2,32,0,0,0,0,0
1573491347875,-10,1,23,0,0,0,0,0
1573491347906.25,-2,12,55,0,0,0,0,0
1573491347937.5,56,1,127,0,0,0,0,0
1573491347968.75,4,56,99,0,0,0,0,0
1573491348000,-5,36,47,0,0,0,0,0
1573491348031.25,-7,7,44,0,0,0,0,0
1573491348062.5,18,-11,59,0,0,0,0,0
1573491348093.75,29,-9,72,0,0,0,0,0
1573491348125,34,3,71,0,0,0,0,0
1573491348156.25,9,6,37,0,0,0,0,0
1573491348187.5,-24,14,43,0,0,0,0,0
1573491348218.75,-15,9,49,0,0,0,0,0
1573491348250,-20,6,36,0,0,0,0,0
1573491348281.25,-9,-22,67,0,0,0,0,0
1573491348312.5,-50,17,69,0,0,0,0,0
1573491348343.75,-58,23,73,0,0,0,0,0
1573491348375,15,0,66,0,0,0,0,0
1573491348406.25,22,-2,76,0,0,0,0,0
1573491348437.5,-40,5,53,0,0,0,0,0
1573491348468.75,-83,19,45,0,0,0,0,0
1573491348500,-73,12,52,0,0,0,0,0
1573491348531.25,-39,8,64,0,0,0,0,0
1573491348562.5,-32,3,61,0,0,0,0,0
1573491348593.75,-27,-3,59,0,0,0,0,0
1573491348625,-23,-3,65,0,0,0,0,0
1573491348656.25,-17,0,65,0,0,0,0,0
1573491348687.5,-18,3,62,0,0,0,0,0
1573491348718.75,-20,5,61,0,0,0,0,0
1573491348750,-20,6,61,0,0,0,0,0
1573491348781.25,-19,4,59,0,0,0,0,0
1573491348812.5,-17,4,57,0,0,0,0,0
1573491348843.75,-3,3,60,0,0,0,0,0
1573491348875,7,-1,61,0,0,0,0,0
1573491348906.25,4,-3,61,0,0,0,0,0
1573491348937.5,-10,-3,62,0,0,0,0,0
1573491348968.75,-16,-1,63,0,0,0,0,0
1573491349000,-26,4,63,0,0,0,0,0
1573491349031.25,-27,6,62,0,0,0,0,0
1573491349062.5,-26,5,60,0,0,0,0,0
1573491349093.75,-27,5,59,0,0,0,0,0
1573491349125,-25,2,59,0,0,0,0,0
1573491349156.25,-22,-1,57,0,0,0,0,0
1573491349187.5,-16,-2,61,0,0,0,0,0
1573491349218.75,-15,-1,62,0,0,0,0,0
1573491349250,-22,1,63,0,0,0,0,0
1573491349281.25,-26,3,62,0,0,0,0,0
1573491349312.5,-26,4,62,0,0,0,0,0
1573491349343.75,-22,4,61,0,0,0,0,0
1573491349375,-21,3,61,0,0,0,0,0
1573491349406.25,-18,2,60,0,0,0,0,0
1573491349437.5,-16,1,61,0,0,0,0,0
1573491349468.75,-11,1,61,0,0,0,0,0
1573491349500,-11,1,61,0,0,0,0,0
1573491349531.25,-13,1,61,0,0,0,0,0
1573491349562.5,-16,1,61,0,0,0,0,0
1573491349593.75,-20,1,62,0,0,0,0,0
1573491349625,-20,2,62,0,0,0,0,0
1573491349656.25,-19,2,61,0,0,0,0,0
1573491349687.5,-19,1,61,0,0,0,0,0
1573491349718.75,-20,2,61,0,0,0,0,0
1573491349750,-21,2,61,0,0,0,0,0
1573491349781.25,-21,2,61,0,0,0,0,0
1573491349812.5,-22,2,61,0,0,0,0,0
1573491349843.75,-22,2,61,0,0,0,0,0
1573491349875,-20,2,61,0,0,0,0,0
1573491349906.25,-18,2,61,0,0,0,0,0
1573491349937.5,-16,1,61,0,0,0,0,0
1573491349968.75,-16,1,61,0,0,0,0,0
1573491350000,-19,2,61,0,0,0,0,0
1573491350031.25,-19,2,61,0,0,0,0,0
1573491350062.5,-18,2,61,0,0,0,0,0
1573491350093.75,-18,2,62,0,0,0,0,0
1573491350125,-18,2,61,0,0,0,0,0
1573491350156.25,-20,2,60,0,0,0,0,0
1573491350187.5,-20,2,61,0,0,0,0,0
1573491350218.75,-19,2,64,0,0,0,0,0
1573491350250,-20,3,63,0,0,0,0,0
1573491350281.25,-24,3,58,0,0,0,0,0
1573491350312.5,-22,2,59,0,0,0,0,0
1573491350343.75,-19,1,62,0,0,0,0,0
1573491350375,-19,1,61,0,0,0,0,0
1573491350406.25,-18,0,61,0,0,0,0,0
1573491350437.5,-19,1,61,0,0,0,0,0
1573491350468.75,-22,2,60,0,0,0,0,0
1573491350500,-22,3,62,0,0,0,0,0
1573491350531.25,-22,4,61,0,0,0,0,0
1573491350562.5,-23,3,60,0,0,0,0,0
1573491350593.75,-21,3,59,0,0,0,0,0
1573491350625,-16,0,60,0,0,0,0,0
1573491350656.25,-14,0,59,0,0,0,0,0
1573491350687.5,-14,-1,57,0,0,0,0,0
1573491350718.75,-12,-1,58,0,0,0,0,0
1573491350750,-8,-1,64,0,0,0,0,0
1573491350781.25,4,-1,76,0,0,0,0,0
1573491350812.5,-18,-5,51,0,0,0,0,0
1573491350843.75,-54,1,41,0,0,0,0,0
1573491350875,-58,6,39,0,0,0,0,0
1573491350906.25,-59,14,31,0,0,0,0,0
1573491350937.5,-61,17,26,0,0,0,0,0
1573491350968.75,-75,9,12,0,0,0,0,0
1573491351000,-76,3,10,0,0,0,0,0
1573491351031.25,-65,-2,27,0,0,0,0,0
1573491351062.5,-59,-4,29,0,0,0,0,0
1573491351093.75,-40,3,37,0,0,0,0,0
1573491351125,-34,5,46,0,0,0,0,0
1573491351156.25,-43,6,48,0,0,0,0,0
1573491351187.5,-44,4,47,0,0,0,0,0
1573491351218.75,-50,5,46,0,0,0,0,0
1573491351250,-46,4,43,0,0,0,0,0
1573491351281.25,-44,5,42,0,0,0,0,0
1573491351312.5,-36,8,57,0,0,0,0,0
1573491351343.75,-34,11,66,0,0,0,0,0
1573491351375,-30,3,59,0,0,0,0,0
1573491351406.25,-22,1,57,0,0,0,0,0
1573491351437.5,-14,-2,56,0,0,0,0,0
1573491351468.75,-13,-2,57,0,0,0,0,0
1573491351500,-16,1,60,0,0,0,0,0
1573491351531.25,-14,3,64,0,0,0,0,0
1573491351562.5,-15,5,67,0,0,0,0,0
1573491351593.75,-16,5,65,0,0,0,0,0
1573491351625,-22,4,60,0,0,0,0,0
1573491351656.25,-18,3,62,0,0,0,0,0
1573491351687.5,-16,2,63,0,0,0,0,0
1573491351718.75,-11,2,62,0,0,0,0,0
1573491351750,-9,1,61,0,0,0,0,0
1573491351781.25,-12,1,60,0,0,0,0,0
1573491351812.5,-15,2,62,0,0,0,0,0
1573491351843.75,-15,3,64,0,0,0,0,0
1573491351875,-14,3,64,0,0,0,0,0
1573491351906.25,-17,1,69,0,0,0,0,0
1573491351937.5,-26,0,73,0,0,0,0,0
1573491351968.75,-18,1,68,0,0,0,0,0
1573491352000,-11,-13,61,0,0,0,0,0
1573491352031.25,-6,-11,55,0,0,0,0,0
1573491352062.5,4,16,47,0,0,0,0,0
1573491352093.75,12,19,48,0,0,0,0,0
1573491352125,12,3,59,0,0,0,0,0
1573491352156.25,-1,3,60,0,0,0,0,0
1573491352187.5,-5,9,55,0,0,0,0,0
1573491352218.75,-4,8,58,0,0,0,0,0
1573491352250,6,-1,97,0,0,0,0,0
1573491352281.25,-20,-8,100,0,0,0,0,0
1573491352312.5,-63,-6,62,0,0,0,0,0
1573491352343.75,-44,-3,54,0,0,0,0,0
1573491352375,-6,-3,43,0,0,0,0,0
1573491352406.25,9,-7,42,0,0,0,0,0
1573491352437.5,24,-10,54,0,0,0,0,0
1573491352468.75,15,-4,70,0,0,0,0,0
1573491352500,-6,6,71,0,0,0,0,0
1573491352531.25,14,6,76,0,0,0,0,0
1573491352562.5,17,-4,74,0,0,0,0,0
1573491352593.75,-25,-11,51,0,0,0,0,0
1573491352625,-32,-7,46,0,0,0,0,0
1573491352656.25,-44,3,46,0,0,0,0,0
1573491352687.5,-49,3,48,0,0,0,0,0
1573491352718.75,-62,5,47,0,0,0,0,0
1573491352750,-65,4,45,0,0,0,0,0
1573491352781.25,-51,-6,41,0,0,0,0,0
1573491352812.5,-47,-13,43,0,0,0,0,0
1573491352843.75,-46,-13,44,0,0,0,0,0
1573491352875,-39,-8,41,0,0,0,0,0
1573491352906.25,-36,-8,39,0,0,0,0,0
1573491352937.5,-31,-9,42,0,0,0,0,0
1573491352968.75,-27,-14,48,0,0,0,0,0
1573491353000,-16,-19,60,0,0,0,0,0
1573491353031.25,-6,-21,60,0,0,0,0,0
1573491353062.5,-2,-19,55,0,0,0,0,0
1573491353093.75,-5,-18,50,0,0,0,0,0
1573491353125,-2,-14,48,0,0,0,0,0
1573491353156.25,5,-12,50,0,0,0,0,0
1573491353187.5,20,-14,55,0,0,0,0,0
1573491353218.75,30,-14,60,0,0,0,0,0
1573491353250,47,-19,69,0,0,0,0,0
1573491353281.25,47,-20,73,0,0,0,0,0
1573491353312.5,39,-18,69,0,0,0,0,0
1573491353343.75,28,-18,60,0,0,0,0,0
1573491353375,21,-18,57,0,0,0,0,0
1573491353406.25,9,-15,54,0,0,0,0,0
1573491353437.5,-1,-12,58,0,0,0,0,0
1573491353468.75,-39,-4,72,0,0,0,0,0
1573491353500,-31,-7,76,0,0,0,0,0
1573491353531.25,-12,-11,67,0,0,0,0,0
1573491353562.5,-6,-13,63,0,0,0,0,0
1573491353593.75,-15,-15,57,0,0,0,0,0
1573491353625,-23,-14,55,0,0,0,0,0
1573491353656.25,-37,-13,41,0,0,0,0,0
1573491353687.5,-52,-15,25,0,0,0,0,0
1573491353718.75,-55,-15,26,0,0,0,0,0
1573491353750,-65,-18,28,0,0,0,0,0
1573491353781.25,-55,-21,27,0,0,0,0,0
1573491353812.5,-55,-18,33,0,0,0,0,0
1573491353843.75,-54,-17,39,0,0,0,0,0
1573491353875,-38,-15,41,0,0,0,0,0
1573491353906.25,-32,-16,41,0,0,0,0,0
1573491353937.5,-36,-16,46,0,0,0,0,0
1573491353968.75,-38,-17,49,0,0,0,0,0
1573491354000,-48,-16,50,0,0,0,0,0
1573491354031.25,-49,-13,50,0,0,0,0,0
1573491354062.5,-46,-15,44,0,0,0,0,0
1573491354093.75,-39,-20,35,0,0,0,0,0
1573491354125,-40,-20,33,0,0,0,0,0
1573491354156.25,-41,-21,35,0,0,0,0,0
1573491354187.5,-44,-18,38,0,0,0,0,0
1573491354218.75,-48,-14,45,0,0,0,0,0
1573491354250,-48,-15,47,0,0,0,0,0
1573491354281.25,-47,-17,47,0,0,0,0,0
1573491354312.5,-45,-18,45,0,0,0,0,0
1573491354343.75,-41,-19,39,0,0,0,0,0
1573491354375,-39,-19,37,0,0,0,0,0
1573491354406.25,-44,-19,38,0,0,0,0,0
1573491354437.5,-44,-19,48,0,0,0,0,0
1573491354468.75,-40,-18,52,0,0,0,0,0
1573491354500,-39,-17,48,0,0,0,0,0
1573491354531.25,-43,-15,42,0,0,0,0,0
1573491354562.5,-48,-14,35,0,0,0,0,0
1573491354593.75,-48,-15,35,0,0,0,0,0
1573491354625,-41,-20,41,0,0,0,0,0
1573491354656.25,-39,-19,46,0,0,0,0,0
1573491354687.5,-40,-19,46,0,0,0,0,0
1573491354718.75,-39,-18,47,0,0,0,0,0
1573491354750,-45,-16,48,0,0,0,0,0
1573491354781.25,-45,-15,48,0,0,0,0,0
1573491354812.5,-43,-17,42,0,0,0,0,0
1573491354843.75,-42,-17,40,0,0,0,0,0
1573491354875,-41,-16,42,0,0,0,0,0
1573491354906.25,-42,-17,45,0,0,0,0,0
1573491354937.5,-40,-18,47,0,0,0,0,0
1573491354968.75,-40,-16,53,0,0,0,0,0
1573491355000,-37,-15,56,0,0,0,0,0
1573491355031.25,-40,-16,49,0,0,0,0,0
1573491355062.5,-52,-14,42,0,0,0,0,0
1573491355093.75,-28,-18,49,0,0,0,0,0
1573491355125,-26,-16,53,0,0,0,0,0
1573491355156.25,-25,-14,49,0,0,0,0,0
1573491355187.5,-24,-10,52,0,0,0,0,0
1573491355218.75,-25,-7,50,0,0,0,0,0
1573491355250,-26,-9,53,0,0,0,0,0
1573491355281.25,-17,-2,63,0,0,0,0,0
1573491355312.5,-9,-6,62,0,0,0,0,0
1573491355343.75,-6,-10,63,0,0,0,0,0
1573491355375,5,-15,63,0,0,0,0,0
1573491355406.25,3,-14,67,0,0,0,0,0
1573491355437.5,-14,-28,67,0,0,0,0,0
1573491355468.75,-17,-28,72,0,0,0,0,0
1573491355500,0,-28,70,0,0,0,0,0
1573491355531.25,-7,-18,67,0,0,0,0,0
1573491355562.5,7,-8,67,0,0,0,0,0
1573491355593.75,-1,-9,70,0,0,0,0,0
1573491355625,4,-13,78,0,0,0,0,0
1573491355656.25,2,-19,79,0,0,0,0,0
1573491355687.5,-7,-31,71,0,0,0,0,0
1573491355718.75,-18,-26,59,0,0,0,0,0
1573491355750,-14,-14,53,0,0,0,0,0
1573491355781.25,-16,-16,42,0,0,0,0,0
1573491355812.5,-15,-19,32,0,0,0,0,0
1573491355843.75,-16,-25,35,0,0,0,0,0
1573491355875,-23,-22,45,0,0,0,0,0
1573491355906.25,-38,-14,54,0,0,0,0,0
1573491355937.5,-38,-17,63,0,0,0,0,0
1573491355968.75,-25,-22,64,0,0,0,0,0
1573491356000,-18,-26,60,0,0,0,0,0
1573491356031.25,-8,-25,71,0,0,0,0,0
1573491356062.5,4,-39,63,0,0,0,0,0
1573491356093.75,8,-39,53,0,0,0,0,0
1573491356125,12,-31,39,0,0,0,0,0
1573491356156.25,13,-28,33,0,0,0,0,0
1573491356187.5,14,-26,30,0,0,0,0,0
1573491356218.75,11,-23,28,0,0,0,0,0
1573491356250,2,-20,29,0,0,0,0,0
1573491356281.25,-5,-14,37,0,0,0,0,0
1573491356312.5,-27,-8,47,0,0,0,0,0
1573491356343.75,-37,-9,42,0,0,0,0,0
1573491356375,-48,-2,56,0,0,0,0,0
1573491356406.25,-30,-10,93,0,0,0,0,0
1573491356437.5,-72,-3,127,0,0,0,0,0
1573491356468.75,-42,3,64,0,0,0,0,0
1573491356500,-25,6,47,0,0,0,0,0
1573491356531.25,-5,-4,38,0,0,0,0,0
1573491356562.5,-13,-10,31,0,0,0,0,0
1573491356593.75,-9,-10,60,0,0,0,0,0
1573491356625,-13,-6,76,0,0,0,0,0
1573491356656.25,-32,2,69,0,0,0,0,0
1573491356687.5,-32,5,62,0,0,0,0,0
1573491356718.75,-35,4,48,0,0,0,0,0
1573491356750,-40,1,43,0,0,0,0,0
1573491356781.25,-47,3,49,0,0,0,0,0
1573491356812.5,-46,4,54,0,0,0,0,0
1573491356843.75,-41,1,52,0,0,0,0,0
1573491356875,-35,0,46,0,0,0,0,0
1573491356906.25,-36,1,46,0,0,0,0,0
1573491356937.5,-39,4,52,0,0,0,0,0
1573491356968.75,-41,5,52,0,0,0,0,0
1573491357000,-42,4,49,0,0,0,0,0
1573491357031.25,-41,2,49,0,0,0,0,0
1573491357062.5,-38,1,50,0,0,0,0,0
1573491357093.75,-39,2,50,0,0,0,0,0
1573491357125,-43,2,48,0,0,0,0,0
1573491357156.25,-42,2,47,0,0,0,0,0
1573491357187.5,-40,3,49,0,0,0,0,0
1573491357218.75,-39,2,49,0,0,0,0,0
1573491357250,-39,2,50,0,0,0,0,0
1573491357281.25,-41,2,49,0,0,0,0,0
1573491357312.5,-41,3,50,0,0,0,0,0
1573491357343.75,-40,3,49,0,0,0,0,0
1573491357375,-40,2,48,0,0,0,0,0
1573491357406.25,-41,2,49,0,0,0,0,0
1573491357437.5,-41,3,49,0,0,0,0,0
1573491357468.75,-40,3,49,0,0,0,0,0
1573491357500,-40,2,50,0,0,0,0,0
1573491357531.25,-40,1,49,0,0,0,0,0
1573491357562.5,-41,1,49,0,0,0,0,0
1573491357593.75,-40,2,49,0,0,0,0,0
1573491357625,-38,2,50,0,0,0,0,0
1573491357656.25,-40,2,49,0,0,0,0,0
1573491357687.5,-44,2,47,0,0,0,0,0
1573491357718.75,-45,2,46,0,0,0,0,0
1573491357750,-42,2,48,0,0,0,0,0
1573491357781.25,-40,3,49,0,0,0,0,0
1573491357812.5,-39,3,50,0,0,0,0,0
1573491357843.75,-40,1,49,0,0,0,0,0
1573491357875,-41,3,49,0,0,0,0,0
1573491357906.25,-41,3,49,0,0,0,0,0
1573491357937.5,-40,2,49,0,0,0,0,0
1573491357968.75,-40,2,48,0,0,0,0,0
1573491358000,-41,1,48,0,0,0,0,0
1573491358031.25,-42,2,48,0,0,0,0,0
1573491358062.5,-41,2,49,0,0,0,0,0
1573491358093.75,-40,2,49,0,0,0,0,0
1573491358125,-41,2,49,0,0,0,0,0
1573491358156.25,-41,2,48,0,0,0,0,0
1573491358187.5,-41,2,49,0,0,0,0,0
1573491358218.75,-41,2,49,0,0,0,0,0
1573491358250,-41,2,49,0,0,0,0,0
1573491358281.25,-41,2,48,0,0,0,0,0
1573491358312.5,-41,2,48,0,0,0,0,0
1573491358343.75,-41,2,48,0,0,0,0,0
1573491358375,-41,3,49,0,0,0,0,0
1573491358406.25,-41,2,48,0,0,0,0,0
1573491358437.5,-41,2,48,0,0,0,0,0
1573491358468.75,-41,2,49,0,0,0,0,0
1573491358500,-41,2,49,0,0,0,0,0
1573491358531.25,-41,2,48,0,0,0,0,0
1573491358562.5,-41,3,49,0,0,0,0,0
1573491358593.75,-41,2,49,0,0,0,0,0
1573491358625,-41,2,48,0,0,0,0,0
1573491358656.25,-41,2,48,0,0,0,0,0
1573491358687.5,-41,2,48,0,0,0,0,0
1573491358718.75,-41,3,48,0,0,0,0,0
1573491358750,-41,2,49,0,0,0,0,0
1573491358781.25,-41,2,49,0,0,0,0,0
1573491358812.5,-41,2,49,0,0,0,0,0
1573491358843.75,-41,3,49,0,0,0,0,0
1573491358875,-41,3,49,0,0,0,0,0
1573491358906.25,-41,2,48,0,0,0,0,0
1573491358937.5,-41,2,48,0,0,0,0,0
1573491358968.75,-41,2,48,0,0,0,0,0
1573491359000,-41,2,48,0,0,0,0,0
1573491359031.25,-40,2,49,0,0,0,0,0
1573491359062.5,-41,2,49,0,0,0,0,0
1573491359093.75,-41,3,49,0,0,0,0,0
1573491359125,-40,2,49,0,0,0,0,0
1573491359156.25,-41,2,49,0,0,0,0,0
1573491359187.5,-41,2,48,0,0,0,0,0
1573491359218.75,-41,3,48,0,0,0,0,0
1573491359250,-41,3,49,0,0,0,0,0
1573491359281.25,-40,3,49,0,0,0,0,0
1573491359312.5,-40,1,49,0,0,0,0,0
1573491359343.75,-40,2,49,0,0,0,0,0
1573491359375,-41,2,46,0,0,0,0,0
1573491359406.25,-40,2,43,0,0,0,0,0
1573491359437.5,-34,2,48,0,0,0,0,0
1573491359468.75,-39,1,54,0,0,0,0,0
1573491359500,-46,9,60,0,0,0,0,0
1573491359531.25,-46,11,59,0,0,0,0,0
1573491359562.5,-43,-5,53,0,0,0,0,0
1573491359593.75,-35,-11,41,0,0,0,0,0
1573491359625,-43,-8,12,0,0,0,0,0
1573491359656.25,-80,-10,6,0,0,0,0,0
1573491359687.5,-47,-8,34,0,0,0,0,0
1573491359718.75,-61,2,47,0,0,0,0,0
1573491359750,-45,4,53,0,0,0,0,0
1573491359781.25,-35,7,56,0,0,0,0,0
1573491359812.5,-33,5,54,0,0,0,0,0
1573491359843.75,-34,0,44,0,0,0,0,0
1573491359875,-34,0,40,0,0,0,0,0
1573491359906.25,-48,4,46,0,0,0,0,0
1573491359937.5,-52,6,46,0,0,0,0,0
1573491359968.75,-55,4,39,0,0,0,0,0
1573491360000,-50,3,36,0,0,0,0,0
1573491360031.25,-47,3,39,0,0,0,0,0
1573491360062.5,-48,4,43,0,0,0,0,0
1573491360093.75,-47,4,43,0,0,0,0,0
1573491360125,-47,4,41,0,0,0,0,0
1573491360156.25,-49,4,41,0,0,0,0,0
1573491360187.5,-49,4,41,0,0,0,0,0
1573491360218.75,-49,4,41,0,0,0,0,0
1573491360250,-48,4,41,0,0,0,0,0
1573491360281.25,-48,4,41,0,0,0,0,0
1573491360312.5,-49,4,41,0,0,0,0,0
1573491360343.75,-48,4,41,0,0,0,0,0
1573491360375,-49,4,42,0,0,0,0,0
1573491360406.25,-48,4,42,0,0,0,0,0
1573491360437.5,-49,3,41,0,0,0,0,0
1573491360468.75,-49,3,41,0,0,0,0,0
1573491360500,-48,4,41,0,0,0,0,0
1573491360531.25,-48,4,41,0,0,0,0,0
1573491360562.5,-48,4,41,0,0,0,0,0
1573491360593.75,-48,5,41,0,0,0,0,0
1573491360625,-48,5,42,0,0,0,0,0
1573491360656.25,-48,4,41,0,0,0,0,0
1573491360687.5,-49,4,41,0,0,0,0,0
1573491360718.75,-48,4,41,0,0,0,0,0
1573491360750,-48,4,42,0,0,0,0,0
1573491360781.25,-48,3,41,0,0,0,0,0
1573491360812.5,-49,3,41,0,0,0,0,0
1573491360843.75,-49,5,41,0,0,0,0,0
1573491360875,-47,4,42,0,0,0,0,0
1573491360906.25,-48,3,41,0,0,0,0,0
1573491360937.5,-49,4,41,0,0,0,0,0
1573491360968.75,-49,4,41,0,0,0,0,0
1573491361000,-48,4,41,0,0,0,0,0
1573491361031.25,-48,4,41,0,0,0,0,0
1573491361062.5,-49,4,41,0,0,0,0,0
1573491361093.75,-48,4,41,0,0,0,0,0
1573491361125,-48,4,41,0,0,0,0,0
1573491361156.25,-48,4,41,0,0,0,0,0
1573491361187.5,-48,4,42,0,0,0,0,0
1573491361218.75,-48,4,42,0,0,0,0,0
