Timestamp,ACC_X,ACC_Y,ACC_Z,Note,AGG,ED,SIB,Condition
1569342894000,15,-9,59,0,0,0,0,0
1569342894031.25,17,-11,62,0,0,0,0,0
1569342894062.5,16,-10,62,0,0,0,0,0
1569342894093.75,5,-5,63,0,0,0,0,0
1569342894125,12,-7,60,0,0,0,0,0
1569342894156.25,13,-7,59,0,0,0,0,0
1569342894187.5,19,-5,63,0,0,0,0,0
1569342894218.75,20,-13,59,0,0,0,0,0
1569342894250,25,-14,62,0,0,0,0,0
1569342894281.25,22,-9,60,0,0,0,0,0
1569342894312.5,20,-10,60,0,0,0,0,0
1569342894343.75,15,-9,57,0,0,0,0,0
1569342894375,17,-1,56,0,0,0,0,0
1569342894406.25,23,-10,59,0,0,0,0,0
1569342894437.5,56,-24,65,0,0,0,0,0
1569342894468.75,30,-10,55,0,0,0,0,0
1569342894500,31,-12,59,0,0,0,0,0
1569342894531.25,26,-19,57,0,0,0,0,0
1569342894562.5,37,-16,61,0,0,0,0,0
1569342894593.75,35,-14,60,0,0,0,0,0
1569342894625,31,-14,58,0,0,0,0,0
1569342894656.25,33,-11,56,0,0,0,0,0
1569342894687.5,41,-13,60,0,0,0,0,0
1569342894718.75,29,-16,57,0,0,0,0,0
1569342894750,34,-21,59,0,0,0,0,0
1569342894781.25,28,-19,57,0,0,0,0,0
1569342894812.5,28,-19,59,0,0,0,0,0
1569342894843.75,19,-18,50,0,0,0,0,0
1569342894875,20,-22,50,0,0,0,0,0
1569342894906.25,24,-19,54,0,0,0,0,0
1569342894937.5,21,-21,53,0,0,0,0,0
1569342894968.75,23,-20,55,0,0,0,0,0
1569342895000,20,-18,51,0,0,0,0,0
1569342895031.25,27,-25,53,0,0,0,0,0
1569342895062.5,25,-19,54,0,0,0,0,0
1569342895093.75,21,-23,53,0,0,0,0,0
1569342895125,23,-27,49,0,0,0,0,0
1569342895156.25,28,-33,42,0,0,0,0,0
1569342895187.5,23,-24,47,0,0,0,0,0
1569342895218.75,23,-19,49,0,0,0,0,0
1569342895250,38,-19,57,0,0,0,0,0
1569342895281.25,24,-19,59,0,0,0,0,0
1569342895312.5,28,-16,63,0,0,0,0,0
1569342895343.75,17,-10,63,0,0,0,0,0
1569342895375,17,-15,65,0,0,0,0,0
1569342895406.25,20,-15,64,0,0,0,0,0
1569342895437.5,16,-17,56,0,0,0,0,0
1569342895468.75,31,-15,53,0,0,0,0,0
1569342895500,34,-17,58,0,0,0,0,0
1569342895531.25,20,-18,58,0,0,0,0,0
1569342895562.5,20,-19,48,0,0,0,0,0
1569342895593.75,30,-18,56,0,0,0,0,0
1569342895625,11,-17,66,0,0,0,0,0
1569342895656.25,8,-15,59,0,0,0,0,0
1569342895687.5,34,-13,55,0,0,0,0,0
1569342895718.75,23,-12,58,0,0,0,0,0
1569342895750,18,-16,55,0,0,0,0,0
1569342895781.25,25,-17,57,0,0,0,0,0
1569342895812.5,19,-18,58,0,0,0,0,0
1569342895843.75,16,-15,59,0,0,0,0,0
1569342895875,19,-15,56,0,0,0,0,0
1569342895906.25,24,-16,59,0,0,0,0,0
1569342895937.5,27,-20,64,0,0,0,0,0
1569342895968.75,16,-16,58,0,0,0,0,0
1569342896000,41,-19,73,0,0,0,0,0
1569342896031.25,18,-13,62,0,0,0,0,0
1569342896062.5,25,-19,62,0,0,0,0,0
1569342896093.75,41,-19,53,0,0,0,0,0
1569342896125,38,-18,53,0,0,0,0,0
1569342896156.25,27,-16,51,0,0,0,0,0
1569342896187.5,30,-22,50,0,0,0,0,0
1569342896218.75,31,-24,50,0,0,0,0,0
1569342896250,20,-21,52,0,0,0,0,0
1569342896281.25,23,-23,57,0,0,0,0,0
1569342896312.5,24,-27,50,0,0,0,0,0
1569342896343.75,27,-22,54,0,0,0,0,0
1569342896375,27,-19,52,0,0,0,0,0
1569342896406.25,29,-23,59,0,0,0,0,0
1569342896437.5,20,-28,56,0,0,0,0,0
1569342896468.75,22,-27,56,0,0,0,0,0
1569342896500,23,-20,55,0,0,0,0,0
1569342896531.25,17,-28,45,0,0,0,0,0
1569342896562.5,22,-31,44,0,0,0,0,0
1569342896593.75,22,-29,42,0,0,0,0,0
1569342896625,26,-33,38,0,0,0,0,0
1569342896656.25,30,-36,39,0,0,0,0,0
1569342896687.5,20,-77,57,0,0,0,0,0
1569342896718.75,16,7,52,0,0,0,0,0
1569342896750,36,-32,66,0,0,0,0,0
1569342896781.25,27,-21,66,0,0,0,0,0
1569342896812.5,25,-20,63,0,0,0,0,0
1569342896843.75,24,-19,60,0,0,0,0,0
1569342896875,25,-17,52,0,0,0,0,0
1569342896906.25,24,-18,43,0,0,0,0,0
1569342896937.5,26,-18,43,0,0,0,0,0
1569342896968.75,24,-14,49,0,0,0,0,0
1569342897000,25,-19,55,0,0,0,0,0
1569342897031.25,22,-18,53,0,0,0,0,0
1569342897062.5,41,-28,73,0,0,0,0,0
1569342897093.75,40,-22,84,0,0,0,0,0
1569342897125,18,-15,55,0,0,0,0,0
1569342897156.25,35,-21,52,0,0,0,0,0
1569342897187.5,35,-21,51,0,0,0,0,0
1569342897218.75,26,-17,52,0,0,0,0,0
1569342897250,30,-18,52,0,0,0,0,0
1569342897281.25,36,-16,54,0,0,0,0,0
1569342897312.5,39,-15,52,0,0,0,0,0
1569342897343.75,33,-10,51,0,0,0,0,0
1569342897375,47,-15,47,0,0,0,0,0
1569342897406.25,42,-13,53,0,0,0,0,0
1569342897437.5,32,-7,57,0,0,0,0,0
1569342897468.75,26,-7,55,0,0,0,0,0
1569342897500,23,-5,58,0,0,0,0,0
1569342897531.25,34,-8,55,0,0,0,0,0
1569342897562.5,31,-7,55,0,0,0,0,0
1569342897593.75,31,-8,55,0,0,0,0,0
1569342897625,34,-8,56,0,0,0,0,0
1569342897656.25,30,-10,55,0,0,0,0,0
1569342897687.5,31,-11,53,0,0,0,0,0
1569342897718.75,37,-8,55,0,0,0,0,0
1569342897750,33,-10,54,0,0,0,0,0
1569342897781.25,31,-11,55,0,0,0,0,0
1569342897812.5,29,-11,53,0,0,0,0,0
1569342897843.75,37,-8,60,0,0,0,0,0
1569342897875,36,-11,54,0,0,0,0,0
1569342897906.25,41,-9,50,0,0,0,0,0
1569342897937.5,38,-9,55,0,0,0,0,0
1569342897968.75,29,-7,56,0,0,0,0,0
1569342898000,35,-11,50,0,0,0,0,0
1569342898031.25,42,-9,68,0,0,0,0,0
1569342898062.5,15,-3,49,0,0,0,0,0
1569342898093.75,20,-6,62,0,0,0,0,0
1569342898125,31,-5,73,0,0,0,0,0
1569342898156.25,23,-1,55,0,0,0,0,0
1569342898187.5,28,-2,62,0,0,0,0,0
1569342898218.75,23,-4,61,0,0,0,0,0
1569342898250,15,-7,55,0,0,0,0,0
1569342898281.25,15,-10,61,0,0,0,0,0
1569342898312.5,13,-9,61,0,0,0,0,0
1569342898343.75,9,-6,61,0,0,0,0,0
1569342898375,12,-8,60,0,0,0,0,0
1569342898406.25,9,-4,57,0,0,0,0,0
1569342898437.5,10,-4,60,0,0,0,0,0
1569342898468.75,7,-3,60,0,0,0,0,0
1569342898500,13,-6,69,0,0,0,0,0
1569342898531.25,6,-5,65,0,0,0,0,0
1569342898562.5,-4,-8,53,0,0,0,0,0
1569342898593.75,3,1,70,0,0,0,0,0
1569342898625,7,2,77,0,0,0,0,0
1569342898656.25,8,-4,57,0,0,0,0,0
1569342898687.5,17,-8,56,0,0,0,0,0
1569342898718.75,21,-7,57,0,0,0,0,0
1569342898750,10,5,62,0,0,0,0,0
1569342898781.25,12,4,64,0,0,0,0,0
1569342898812.5,16,1,67,0,0,0,0,0
1569342898843.75,16,-6,66,0,0,0,0,0
1569342898875,15,-7,62,0,0,0,0,0
1569342898906.25,15,-6,67,0,0,0,0,0
1569342898937.5,18,-3,61,0,0,0,0,0
1569342898968.75,19,0,55,0,0,0,0,0
1569342899000,21,2,61,0,0,0,0,0
1569342899031.25,19,5,79,0,0,0,0,0
1569342899062.5,16,2,66,0,0,0,0,0
1569342899093.75,20,-8,54,0,0,0,0,0
1569342899125,26,-6,61,0,0,0,0,0
1569342899156.25,24,-4,63,0,0,0,0,0
1569342899187.5,17,-6,53,0,0,0,0,0
1569342899218.75,23,-4,60,0,0,0,0,0
1569342899250,28,-4,65,0,0,0,0,0
1569342899281.25,30,-6,60,0,0,0,0,0
1569342899312.5,32,-7,60,0,0,0,0,0
1569342899343.75,32,-8,56,0,0,0,0,0
1569342899375,29,-9,49,0,0,0,0,0
1569342899406.25,34,-8,62,0,0,0,0,0
1569342899437.5,32,-9,64,0,0,0,0,0
1569342899468.75,30,-9,57,0,0,0,0,0
1569342899500,36,-7,53,0,0,0,0,0
1569342899531.25,37,-6,55,0,0,0,0,0
1569342899562.5,35,-4,52,0,0,0,0,0
1569342899593.75,30,-6,50,0,0,0,0,0
1569342899625,34,1,62,0,0,0,0,0
1569342899656.25,32,1,62,0,0,0,0,0
1569342899687.5,27,-2,62,0,0,0,0,0
1569342899718.75,16,-5,53,0,0,0,0,0
1569342899750,21,1,74,0,0,0,0,0
1569342899781.25,21,-2,72,0,0,0,0,0
1569342899812.5,18,-4,60,0,0,0,0,0
1569342899843.75,20,-6,62,0,0,0,0,0
1569342899875,20,-6,61,0,0,0,0,0
1569342899906.25,17,-10,57,0,0,0,0,0
1569342899937.5,15,-8,60,0,0,0,0,0
1569342899968.75,16,-8,58,0,0,0,0,0
1569342900000,16,-9,61,0,0,0,0,0
1569342900031.25,15,-7,61,0,0,0,0,0
1569342900062.5,16,-5,59,0,0,0,0,0
1569342900093.75,17,-5,58,0,0,0,0,0
1569342900125,22,-5,57,0,0,0,0,0
1569342900156.25,23,-6,52,0,0,0,0,0
1569342900187.5,30,1,59,0,0,0,0,0
1569342900218.75,17,5,83,0,0,0,0,0
1569342900250,12,-8,63,0,0,0,0,0
1569342900281.25,19,-11,49,0,0,0,0,0
1569342900312.5,22,-11,52,0,0,0,0,0
1569342900343.75,23,-9,52,0,0,0,0,0
1569342900375,29,1,68,0,0,0,0,0
1569342900406.25,27,2,63,0,0,0,0,0
1569342900437.5,27,-6,59,0,0,0,0,0
1569342900468.75,30,-10,58,0,0,0,0,0
1569342900500,35,-10,75,0,0,0,0,0
1569342900531.25,23,-11,55,0,0,0,0,0
1569342900562.5,23,-10,53,0,0,0,0,0
1569342900593.75,28,-11,60,0,0,0,0,0
1569342900625,35,-8,59,0,0,0,0,0
1569342900656.25,36,-11,48,0,0,0,0,0
1569342900687.5,39,-12,57,0,0,0,0,0
1569342900718.75,36,-8,55,0,0,0,0,0
1569342900750,34,-14,49,0,0,0,0,0
1569342900781.25,34,-14,57,0,0,0,0,0
1569342900812.5,36,-9,58,0,0,0,0,0
1569342900843.75,18,-11,55,0,0,0,0,0
1569342900875,16,-11,59,0,0,0,0,0
1569342900906.25,17,-9,61,0,0,0,0,0
1569342900937.5,24,-11,57,0,0,0,0,0
1569342900968.75,30,-11,57,0,0,0,0,0
1569342901000,34,-13,57,0,0,0,0,0
1569342901031.25,30,-12,57,0,0,0,0,0
1569342901062.5,23,-11,57,0,0,0,0,0
1569342901093.75,24,-12,58,0,0,0,0,0
1569342901125,26,-12,57,0,0,0,0,0
1569342901156.25,28,-12,57,0,0,0,0,0
1569342901187.5,26,-11,57,0,0,0,0,0
1569342901218.75,26,-11,58,0,0,0,0,0
1569342901250,27,-10,57,0,0,0,0,0
1569342901281.25,26,-11,58,0,0,0,0,0
1569342901312.5,26,-12,58,0,0,0,0,0
1569342901343.75,26,-11,58,0,0,0,0,0
1569342901375,26,-11,58,0,0,0,0,0
1569342901406.25,27,-11,58,0,0,0,0,0
1569342901437.5,26,-11,58,0,0,0,0,0
1569342901468.75,26,-11,58,0,0,0,0,0
1569342901500,26,-12,58,0,0,0,0,0
1569342901531.25,25,-10,58,0,0,0,0,0
1569342901562.5,26,-11,58,0,0,0,0,0
1569342901593.75,26,-11,58,0,0,0,0,0
1569342901625,25,-10,59,0,0,0,0,0
1569342901656.25,24,-11,58,0,0,0,0,0
1569342901687.5,25,-10,58,0,0,0,0,0
1569342901718.75,25,-11,59,0,0,0,0,0
1569342901750,26,-11,58,0,0,0,0,0
1569342901781.25,25,-10,58,0,0,0,0,0
1569342901812.5,25,-11,59,0,0,0,0,0
1569342901843.75,26,-10,58,0,0,0,0,0
1569342901875,25,-11,58,0,0,0,0,0
1569342901906.25,25,-11,58,0,0,0,0,0
1569342901937.5,26,-11,58,0,0,0,0,0
1569342901968.75,25,-11,58,0,0,0,0,0
1569342902000,25,-11,58,0,0,0,0,0
1569342902031.25,25,-11,58,0,0,0,0,0
1569342902062.5,26,-11,58,0,0,0,0,0
1569342902093.75,25,-10,58,0,0,0,0,0
1569342902125,25,-10,58,0,0,0,0,0
1569342902156.25,25,-11,58,0,0,0,0,0
1569342902187.5,26,-10,58,0,0,0,0,0
1569342902218.75,25,-10,59,0,0,0,0,0
1569342902250,25,-11,58,0,0,0,0,0
1569342902281.25,25,-11,58,0,0,0,0,0
1569342902312.5,25,-11,58,0,0,0,0,0
1569342902343.75,25,-11,58,0,0,0,0,0
1569342902375,25,-11,58,0,0,0,0,0
1569342902406.25,25,-11,58,0,0,0,0,0
1569342902437.5,25,-11,58,0,0,0,0,0
1569342902468.75,25,-11,58,0,0,0,0,0
1569342902500,26,-11,58,0,0,0,0,0
1569342902531.25,25,-11,58,0,0,0,0,0
1569342902562.5,25,-11,59,0,0,0,0,0
1569342902593.75,26,-11,58,0,0,0,0,0
1569342902625,25,-11,58,0,0,0,0,0
1569342902656.25,25,-11,58,0,0,0,0,0
1569342902687.5,25,-12,58,0,0,0,0,0
1569342902718.75,25,-11,58,0,0,0,0,0
1569342902750,25,-11,58,0,0,0,0,0
1569342902781.25,25,-11,58,0,0,0,0,0
1569342902812.5,25,-11,58,0,0,0,0,0
1569342902843.75,25,-11,58,0,0,0,0,0
1569342902875,26,-12,58,0,0,0,0,0
1569342902906.25,24,-12,58,0,0,0,0,0
1569342902937.5,25,-11,58,0,0,0,0,0
1569342902968.75,25,-11,58,0,0,0,0,0
1569342903000,26,-11,58,0,0,0,0,0
1569342903031.25,25,-11,58,0,0,0,0,0
1569342903062.5,26,-11,58,0,0,0,0,0
1569342903093.75,25,-11,59,0,0,0,0,0
1569342903125,26,-10,59,0,0,0,0,0
1569342903156.25,28,-9,59,0,0,0,0,0
1569342903187.5,30,-8,59,0,0,0,0,0
1569342903218.75,29,-6,61,0,0,0,0,0
1569342903250,25,-4,60,0,0,0,0,0
1569342903281.25,29,-7,58,0,0,0,0,0
1569342903312.5,31,-11,57,0,0,0,0,0
1569342903343.75,23,-18,60,0,0,0,0,0
1569342903375,23,-21,61,0,0,0,0,0
1569342903406.25,5,-34,58,0,0,0,0,0
1569342903437.5,0,-53,58,0,0,0,0,0
1569342903468.75,5,-40,59,0,0,0,0,0
1569342903500,7,-32,61,0,0,0,0,0
1569342903531.25,-7,-32,51,0,0,0,0,0
1569342903562.5,-11,-31,44,0,0,0,0,0
1569342903593.75,4,-28,54,0,0,0,0,0
1569342903625,3,-26,58,0,0,0,0,0
1569342903656.25,6,-24,59,0,0,0,0,0
1569342903687.5,-2,-18,40,0,0,0,0,0
1569342903718.75,22,-19,62,0,0,0,0,0
1569342903750,17,-21,66,0,0,0,0,0
1569342903781.25,12,-27,54,0,0,0,0,0
1569342903812.5,13,-29,57,0,0,0,0,0
1569342903843.75,34,-39,62,0,0,0,0,0
1569342903875,25,-26,57,0,0,0,0,0
1569342903906.25,23,-24,64,0,0,0,0,0
1569342903937.5,14,-36,55,0,0,0,0,0
1569342903968.75,0,-30,48,0,0,0,0,0
1569342904000,-8,-25,46,0,0,0,0,0
1569342904031.25,32,-25,60,0,0,0,0,0
1569342904062.5,27,-20,49,0,0,0,0,0
1569342904093.75,23,-19,54,0,0,0,0,0
1569342904125,23,-20,61,0,0,0,0,0
1569342904156.25,10,-20,49,0,0,0,0,0
1569342904187.5,15,-21,49,0,0,0,0,0
1569342904218.75,28,-24,52,0,0,0,0,0
1569342904250,24,-26,54,0,0,0,0,0
1569342904281.25,27,-24,60,0,0,0,0,0
1569342904312.5,31,-30,56,0,0,0,0,0
1569342904343.75,26,-32,52,0,0,0,0,0
1569342904375,28,-26,51,0,0,0,0,0
1569342904406.25,34,-27,45,0,0,0,0,0
1569342904437.5,21,-24,41,0,0,0,0,0
1569342904468.75,24,-21,47,0,0,0,0,0
1569342904500,36,-20,51,0,0,0,0,0
1569342904531.25,42,-18,54,0,0,0,0,0
1569342904562.5,35,-24,51,0,0,0,0,0
1569342904593.75,44,-18,57,0,0,0,0,0
1569342904625,40,-16,52,0,0,0,0,0
1569342904656.25,32,-17,47,0,0,0,0,0
1569342904687.5,31,-23,47,0,0,0,0,0
1569342904718.75,31,-25,47,0,0,0,0,0
1569342904750,45,-37,39,0,0,0,0,0
1569342904781.25,30,-22,57,0,0,0,0,0
1569342904812.5,37,-35,47,0,0,0,0,0
1569342904843.75,35,-34,42,0,0,0,0,0
1569342904875,42,-33,36,0,0,0,0,0
1569342904906.25,37,-25,33,0,0,0,0,0
1569342904937.5,32,-39,33,0,0,0,0,0
1569342904968.75,26,-28,48,0,0,0,0,0
1569342905000,32,-39,44,0,0,0,0,0
1569342905031.25,34,-36,41,0,0,0,0,0
1569342905062.5,35,-27,41,0,0,0,0,0
1569342905093.75,44,-33,49,0,0,0,0,0
1569342905125,32,-32,39,0,0,0,0,0
1569342905156.25,29,-32,43,0,0,0,0,0
1569342905187.5,30,-30,45,0,0,0,0,0
1569342905218.75,29,-33,42,0,0,0,0,0
1569342905250,27,-27,43,0,0,0,0,0
1569342905281.25,37,-37,49,0,0,0,0,0
1569342905312.5,32,-37,45,0,0,0,0,0
1569342905343.75,30,-36,40,0,0,0,0,0
1569342905375,30,-28,39,0,0,0,0,0
1569342905406.25,16,-28,44,0,0,0,0,0
1569342905437.5,33,-34,47,0,0,0,0,0
1569342905468.75,27,-33,53,0,0,0,0,0
1569342905500,36,-33,55,0,0,0,0,0
1569342905531.25,41,-39,50,0,0,0,0,0
1569342905562.5,38,-40,37,0,0,0,0,0
1569342905593.75,29,-33,45,0,0,0,0,0
1569342905625,39,-31,44,0,0,0,0,0
1569342905656.25,34,-17,49,0,0,0,0,0
1569342905687.5,27,-10,52,0,0,0,0,0
1569342905718.75,43,-18,47,0,0,0,0,0
1569342905750,30,-23,49,0,0,0,0,0
1569342905781.25,32,-27,45,0,0,0,0,0
1569342905812.5,37,-24,49,0,0,0,0,0
1569342905843.75,31,-14,63,0,0,0,0,0
1569342905875,36,-9,63,0,0,0,0,0
1569342905906.25,40,-16,51,0,0,0,0,0
1569342905937.5,33,-16,51,0,0,0,0,0
1569342905968.75,25,-17,50,0,0,0,0,0
1569342906000,11,-16,49,0,0,0,0,0
1569342906031.25,31,-20,44,0,0,0,0,0
1569342906062.5,37,-18,46,0,0,0,0,0
1569342906093.75,48,-12,62,0,0,0,0,0
1569342906125,35,-6,49,0,0,0,0,0
1569342906156.25,29,-7,47,0,0,0,0,0
1569342906187.5,35,-5,56,0,0,0,0,0
1569342906218.75,19,5,67,0,0,0,0,0
1569342906250,22,-1,62,0,0,0,0,0
1569342906281.25,29,-21,50,0,0,0,0,0
1569342906312.5,43,-30,43,0,0,0,0,0
1569342906343.75,56,-26,28,0,0,0,0,0
1569342906375,35,-13,52,0,0,0,0,0
1569342906406.25,41,-16,55,0,0,0,0,0
1569342906437.5,29,-11,57,0,0,0,0,0
1569342906468.75,40,-11,62,0,0,0,0,0
1569342906500,43,-15,51,0,0,0,0,0
1569342906531.25,41,-18,44,0,0,0,0,0
1569342906562.5,32,-16,41,0,0,0,0,0
1569342906593.75,35,-17,49,0,0,0,0,0
1569342906625,51,-10,56,0,0,0,0,0
1569342906656.25,43,-14,45,0,0,0,0,0
1569342906687.5,58,-17,46,0,0,0,0,0
1569342906718.75,39,-28,43,0,0,0,0,0
1569342906750,29,-21,54,0,0,0,0,0
1569342906781.25,34,-15,53,0,0,0,0,0
1569342906812.5,29,-21,49,0,0,0,0,0
1569342906843.75,47,-24,43,0,0,0,0,0
1569342906875,39,-22,40,0,0,0,0,0
1569342906906.25,32,-28,46,0,0,0,0,0
1569342906937.5,41,-28,49,0,0,0,0,0
1569342906968.75,43,-28,49,0,0,0,0,0
1569342907000,30,-24,40,0,0,0,0,0
1569342907031.25,28,-25,42,0,0,0,0,0
1569342907062.5,34,-30,40,0,0,0,0,0
1569342907093.75,32,-25,39,0,0,0,0,0
1569342907125,21,-17,39,0,0,0,0,0
1569342907156.25,35,-19,46,0,0,0,0,0
1569342907187.5,36,-18,44,0,0,0,0,0
1569342907218.75,44,-21,53,0,0,0,0,0
1569342907250,46,-23,56,0,0,0,0,0
1569342907281.25,46,-35,46,0,0,0,0,0
1569342907312.5,37,-34,45,0,0,0,0,0
1569342907343.75,48,-37,47,0,0,0,0,0
1569342907375,46,-22,36,0,0,0,0,0
1569342907406.25,29,-17,48,0,0,0,0,0
1569342907437.5,15,-15,42,0,0,0,0,0
1569342907468.75,30,-13,53,0,0,0,0,0
1569342907500,51,-19,61,0,0,0,0,0
1569342907531.25,49,-28,36,0,0,0,0,0
1569342907562.5,43,-21,37,0,0,0,0,0
1569342907593.75,41,-22,42,0,0,0,0,0
1569342907625,37,-27,44,0,0,0,0,0
1569342907656.25,39,-27,43,0,0,0,0,0
1569342907687.5,44,-9,44,0,0,0,0,0
1569342907718.75,35,-15,45,0,0,0,0,0
1569342907750,46,-11,42,0,0,0,0,0
1569342907781.25,80,-3,57,0,0,0,0,0
1569342907812.5,85,-21,74,0,0,0,0,0
1569342907843.75,57,-10,39,0,0,0,0,0
1569342907875,44,-11,53,0,0,0,0,0
1569342907906.25,27,-24,47,0,0,0,0,0
1569342907937.5,18,-29,38,0,0,0,0,0
1569342907968.75,17,-35,22,0,0,0,0,0
1569342908000,13,-42,17,0,0,0,0,0
1569342908031.25,-10,-46,25,0,0,0,0,0
1569342908062.5,3,-55,26,0,0,0,0,0
1569342908093.75,-14,-55,33,0,0,0,0,0
1569342908125,-7,-56,37,0,0,0,0,0
1569342908156.25,8,-54,34,0,0,0,0,0
1569342908187.5,-3,-75,22,0,0,0,0,0
1569342908218.75,-9,-91,21,0,0,0,0,0
1569342908250,-12,-94,35,0,0,0,0,0
1569342908281.25,-60,-85,-2,0,0,0,0,0
1569342908312.5,-26,-79,-47,0,0,0,0,0
1569342908343.75,-17,-67,-14,0,0,0,0,0
1569342908375,-39,-58,-2,0,0,0,0,0
1569342908406.25,-52,-59,-3,0,0,0,0,0
1569342908437.5,-19,-63,4,0,0,0,0,0
1569342908468.75,-3,-55,16,0,0,0,0,0
1569342908500,-6,-65,14,0,0,0,0,0
1569342908531.25,12,-66,-22,0,0,0,0,0
1569342908562.5,28,-61,-15,0,0,0,0,0
1569342908593.75,20,-50,4,0,0,0,0,0
1569342908625,17,-48,-7,0,0,0,0,0
1569342908656.25,19,-52,-8,0,0,0,0,0
1569342908687.5,7,-50,6,0,0,0,0,0
1569342908718.75,18,-55,2,0,0,0,0,0
1569342908750,25,-59,-1,0,0,0,0,0
1569342908781.25,18,-57,0,0,0,0,0,0
1569342908812.5,17,-59,5,0,0,0,0,0
1569342908843.75,11,-58,1,0,0,0,0,0
1569342908875,5,-69,9,0,0,0,0,0
1569342908906.25,9,-61,11,0,0,0,0,0
1569342908937.5,10,-60,7,0,0,0,0,0
1569342908968.75,17,-64,3,0,0,0,0,0
1569342909000,9,-62,2,0,0,0,0,0
1569342909031.25,8,-62,4,0,0,0,0,0
1569342909062.5,5,-64,-1,0,0,0,0,0
1569342909093.75,9,-63,1,0,0,0,0,0
1569342909125,11,-64,5,0,0,0,0,0
1569342909156.25,8,-64,4,0,0,0,0,0
1569342909187.5,6,-63,5,0,0,0,0,0
1569342909218.75,9,-64,5,0,0,0,0,0
1569342909250,6,-63,3,0,0,0,0,0
1569342909281.25,9,-63,4,0,0,0,0,0
1569342909312.5,8,-64,2,0,0,0,0,0
1569342909343.75,8,-64,2,0,0,0,0,0
1569342909375,7,-63,2,0,0,0,0,0
1569342909406.25,5,-64,4,0,0,0,0,0
1569342909437.5,10,-63,9,0,0,0,0,0
1569342909468.75,11,-62,10,0,0,0,0,0
1569342909500,8,-66,3,0,0,0,0,0
1569342909531.25,9,-66,3,0,0,0,0,0
1569342909562.5,6,-62,2,0,0,0,0,0
1569342909593.75,4,-61,0,0,0,0,0,0
1569342909625,7,-59,2,0,0,0,0,0
1569342909656.25,-8,-60,-4,0,0,0,0,0
1569342909687.5,0,-68,-12,0,0,0,0,0
1569342909718.75,-7,-71,-26,0,0,0,0,0
1569342909750,-19,-77,-61,0,0,0,0,0
1569342909781.25,1,-90,-70,0,0,0,0,0
1569342909812.5,-13,-85,-54,0,0,0,0,0
1569342909843.75,3,-60,-6,0,0,0,0,0
1569342909875,22,0,83,0,0,0,0,0
1569342909906.25,127,117,127,0,0,0,0,0
1569342909937.5,-19,-58,-16,0,0,0,0,0
1569342909968.75,15,-20,56,0,0,0,0,0
1569342910000,9,-21,65,0,0,0,0,0
1569342910031.25,1,-28,67,0,0,0,0,0
1569342910062.5,-28,-29,15,0,0,0,0,0
1569342910093.75,-29,-30,15,0,0,0,0,0
1569342910125,5,-47,17,0,0,0,0,0
1569342910156.25,33,-48,5,0,0,0,0,0
1569342910187.5,48,-43,26,0,0,0,0,0
1569342910218.75,67,-30,37,0,0,0,0,0
1569342910250,86,-28,43,0,0,0,0,0
1569342910281.25,114,-26,60,0,0,0,0,0
1569342910312.5,54,-16,58,0,0,0,0,0
1569342910343.75,38,-16,56,0,0,0,0,0
1569342910375,54,-29,49,0,0,0,0,0
1569342910406.25,47,-25,44,0,0,0,0,0
1569342910437.5,28,-18,38,0,0,0,0,0
1569342910468.75,3,-14,-3,0,0,0,0,0
1569342910500,17,-23,7,0,0,0,0,0
1569342910531.25,25,-18,24,0,0,0,0,0
1569342910562.5,106,18,127,0,0,0,0,0
1569342910593.75,67,3,87,0,0,0,0,0
1569342910625,55,-2,45,0,0,0,0,0
1569342910656.25,43,-22,33,0,0,0,0,0
1569342910687.5,46,-32,17,0,0,0,0,0
1569342910718.75,46,-38,11,0,0,0,0,0
1569342910750,16,-30,3,0,0,0,0,0
1569342910781.25,16,-31,22,0,0,0,0,0
1569342910812.5,26,-38,36,0,0,0,0,0
1569342910843.75,10,-25,36,0,0,0,0,0
1569342910875,47,-25,70,0,0,0,0,0
1569342910906.25,53,-21,81,0,0,0,0,0
1569342910937.5,42,-26,75,0,0,0,0,0
1569342910968.75,46,-27,63,0,0,0,0,0
1569342911000,57,-33,46,0,0,0,0,0
1569342911031.25,48,-30,45,0,0,0,0,0
1569342911062.5,41,-28,40,0,0,0,0,0
1569342911093.75,35,-26,38,0,0,0,0,0
1569342911125,44,-29,49,0,0,0,0,0
1569342911156.25,43,-28,49,0,0,0,0,0
1569342911187.5,25,-21,39,0,0,0,0,0
1569342911218.75,22,-21,30,0,0,0,0,0
1569342911250,19,-21,25,0,0,0,0,0
1569342911281.25,8,-15,12,0,0,0,0,0
1569342911312.5,18,-18,6,0,0,0,0,0
1569342911343.75,38,-24,10,0,0,0,0,0
1569342911375,18,-21,41,0,0,0,0,0
1569342911406.25,59,-11,65,0,0,0,0,0
1569342911437.5,98,-5,118,0,0,0,0,0
1569342911468.75,107,-37,80,0,0,0,0,0
1569342911500,56,-37,27,0,0,0,0,0
1569342911531.25,55,-41,25,0,0,0,0,0
1569342911562.5,70,-40,32,0,0,0,0,0
1569342911593.75,58,-37,24,0,0,0,0,0
1569342911625,35,-48,-7,0,0,0,0,0
1569342911656.25,41,-48,18,0,0,0,0,0
1569342911687.5,26,-44,13,0,0,0,0,0
1569342911718.75,18,-44,3,0,0,0,0,0
1569342911750,18,-47,20,0,0,0,0,0
1569342911781.25,15,-51,8,0,0,0,0,0
1569342911812.5,12,-60,-1,0,0,0,0,0
1569342911843.75,9,-67,-15,0,0,0,0,0
1569342911875,10,-76,-20,0,0,0,0,0
1569342911906.25,7,-70,-3,0,0,0,0,0
1569342911937.5,19,-58,10,0,0,0,0,0
1569342911968.75,29,-42,38,0,0,0,0,0
1569342912000,6,-17,60,0,0,0,0,0
1569342912031.25,30,-10,103,0,0,0,0,0
1569342912062.5,0,-25,45,0,0,0,0,0
1569342912093.75,-7,-28,32,0,0,0,0,0
1569342912125,19,-32,58,0,0,0,0,0
1569342912156.25,7,-37,47,0,0,0,0,0
1569342912187.5,-4,-59,5,0,0,0,0,0
1569342912218.75,14,-59,14,0,0,0,0,0
1569342912250,10,-53,11,0,0,0,0,0
1569342912281.25,22,-60,-5,0,0,0,0,0
1569342912312.5,21,-59,-14,0,0,0,0,0
1569342912343.75,14,-54,-45,0,0,0,0,0
1569342912375,36,-57,-26,0,0,0,0,0
1569342912406.25,22,-52,-46,0,0,0,0,0
1569342912437.5,15,-49,-58,0,0,0,0,0
1569342912468.75,35,-51,-37,0,0,0,0,0
1569342912500,15,-47,-57,0,0,0,0,0
1569342912531.25,22,-46,-47,0,0,0,0,0
1569342912562.5,27,-44,-37,0,0,0,0,0
1569342912593.75,17,-43,-47,0,0,0,0,0
1569342912625,21,-47,-40,0,0,0,0,0
1569342912656.25,26,-46,-34,0,0,0,0,0
1569342912687.5,20,-45,-39,0,0,0,0,0
1569342912718.75,23,-46,-42,0,0,0,0,0
1569342912750,29,-45,-38,0,0,0,0,0
1569342912781.25,29,-44,-38,0,0,0,0,0
1569342912812.5,23,-46,-40,0,0,0,0,0
1569342912843.75,27,-47,-34,0,0,0,0,0
1569342912875,32,-46,-31,0,0,0,0,0
1569342912906.25,33,-44,-34,0,0,0,0,0
1569342912937.5,31,-45,-36,0,0,0,0,0
1569342912968.75,33,-43,-32,0,0,0,0,0
1569342913000,37,-44,-23,0,0,0,0,0
1569342913031.25,30,-43,-25,0,0,0,0,0
1569342913062.5,35,-41,-22,0,0,0,0,0
1569342913093.75,33,-38,-31,0,0,0,0,0
1569342913125,37,-39,-29,0,0,0,0,0
1569342913156.25,41,-38,-24,0,0,0,0,0
1569342913187.5,48,-40,-29,0,0,0,0,0
1569342913218.75,50,-42,-26,0,0,0,0,0
1569342913250,42,-41,-26,0,0,0,0,0
1569342913281.25,25,-38,-30,0,0,0,0,0
1569342913312.5,36,-37,-27,0,0,0,0,0
1569342913343.75,44,-40,-29,0,0,0,0,0
1569342913375,43,-39,-25,0,0,0,0,0
1569342913406.25,38,-37,-21,0,0,0,0,0
1569342913437.5,43,-40,-28,0,0,0,0,0
1569342913468.75,46,-44,-28,0,0,0,0,0
1569342913500,47,-42,-27,0,0,0,0,0
1569342913531.25,43,-38,-20,0,0,0,0,0
1569342913562.5,41,-37,-20,0,0,0,0,0
1569342913593.75,45,-35,-27,0,0,0,0,0
1569342913625,43,-35,-20,0,0,0,0,0
1569342913656.25,42,-37,-21,0,0,0,0,0
1569342913687.5,45,-38,-24,0,0,0,0,0
1569342913718.75,44,-34,-24,0,0,0,0,0
1569342913750,43,-34,-25,0,0,0,0,0
1569342913781.25,46,-31,-27,0,0,0,0,0
1569342913812.5,42,-31,-34,0,0,0,0,0
1569342913843.75,47,-32,-34,0,0,0,0,0
1569342913875,48,-33,-31,0,0,0,0,0
1569342913906.25,46,-32,-27,0,0,0,0,0
1569342913937.5,46,-32,-26,0,0,0,0,0
1569342913968.75,44,-31,-24,0,0,0,0,0
1569342914000,44,-33,-25,0,0,0,0,0
1569342914031.25,46,-30,-27,0,0,0,0,0
1569342914062.5,49,-37,-25,0,0,0,0,0
1569342914093.75,41,-34,-29,0,0,0,0,0
1569342914125,49,-34,-25,0,0,0,0,0
1569342914156.25,49,-32,-27,0,0,0,0,0
1569342914187.5,45,-37,-24,0,0,0,0,0
1569342914218.75,47,-34,-21,0,0,0,0,0
1569342914250,44,-33,-27,0,0,0,0,0
1569342914281.25,52,-34,-24,0,0,0,0,0
1569342914312.5,40,-33,-26,0,0,0,0,0
1569342914343.75,47,-32,-24,0,0,0,0,0
1569342914375,54,-28,-31,0,0,0,0,0
1569342914406.25,52,-31,-30,0,0,0,0,0
1569342914437.5,49,-34,-26,0,0,0,0,0
1569342914468.75,46,-33,-29,0,0,0,0,0
1569342914500,39,-33,-32,0,0,0,0,0
1569342914531.25,47,-34,-23,0,0,0,0,0
1569342914562.5,41,-31,-25,0,0,0,0,0
1569342914593.75,58,-33,-19,0,0,0,0,0
1569342914625,49,-32,-21,0,0,0,0,0
1569342914656.25,49,-34,-27,0,0,0,0,0
1569342914687.5,46,-28,-20,0,0,0,0,0
1569342914718.75,52,-31,-19,0,0,0,0,0
1569342914750,57,-34,-16,0,0,0,0,0
1569342914781.25,45,-34,-20,0,0,0,0,0
1569342914812.5,42,-34,-25,0,0,0,0,0
1569342914843.75,34,-34,-24,0,0,0,0,0
1569342914875,42,-36,-18,0,0,0,0,0
1569342914906.25,-81,-47,-25,0,0,0,0,0
1569342914937.5,27,-81,4,0,0,0,0,0
1569342914968.75,34,-42,-13,0,0,0,0,0
1569342915000,50,-26,-16,0,0,0,0,0
1569342915031.25,68,-22,-9,0,0,0,0,0
1569342915062.5,63,-26,-12,0,0,0,0,0
1569342915093.75,54,-28,-12,0,0,0,0,0
1569342915125,48,-35,-12,0,0,0,0,0
1569342915156.25,51,-39,-20,0,0,0,0,0
1569342915187.5,44,-38,-26,0,0,0,0,0
1569342915218.75,42,-36,-31,0,0,0,0,0
1569342915250,42,-39,-29,0,0,0,0,0
1569342915281.25,41,-34,-31,0,0,0,0,0
1569342915312.5,37,-35,-27,0,0,0,0,0
1569342915343.75,44,-37,-27,0,0,0,0,0
1569342915375,40,-37,-31,0,0,0,0,0
1569342915406.25,40,-35,-31,0,0,0,0,0
1569342915437.5,43,-35,-29,0,0,0,0,0
1569342915468.75,42,-35,-22,0,0,0,0,0
1569342915500,45,-35,-28,0,0,0,0,0
1569342915531.25,42,-31,-32,0,0,0,0,0
1569342915562.5,47,-36,-32,0,0,0,0,0
1569342915593.75,38,-25,-37,0,0,0,0,0
1569342915625,35,-32,-34,0,0,0,0,0
1569342915656.25,40,-33,-38,0,0,0,0,0
1569342915687.5,38,-35,-27,0,0,0,0,0
1569342915718.75,39,-33,-32,0,0,0,0,0
1569342915750,43,-37,-27,0,0,0,0,0
1569342915781.25,45,-39,-30,0,0,0,0,0
1569342915812.5,42,-33,-31,0,0,0,0,0
1569342915843.75,43,-36,-24,0,0,0,0,0
1569342915875,43,-36,-33,0,0,0,0,0
1569342915906.25,45,-34,-26,0,0,0,0,0
1569342915937.5,44,-36,-35,0,0,0,0,0
1569342915968.75,44,-32,-23,0,0,0,0,0
1569342916000,35,-34,-26,0,0,0,0,0
1569342916031.25,42,-27,-26,0,0,0,0,0
1569342916062.5,45,-36,-29,0,0,0,0,0
1569342916093.75,42,-40,-27,0,0,0,0,0
1569342916125,46,-36,-18,0,0,0,0,0
1569342916156.25,44,-35,-20,0,0,0,0,0
1569342916187.5,43,-38,-28,0,0,0,0,0
1569342916218.75,47,-36,-26,0,0,0,0,0
1569342916250,54,-41,-28,0,0,0,0,0
1569342916281.25,47,-33,-18,0,0,0,0,0
1569342916312.5,26,-28,-34,0,0,0,0,0
1569342916343.75,33,-27,-28,0,0,0,0,0
1569342916375,44,-35,-30,0,0,0,0,0
1569342916406.25,44,-33,-39,0,0,0,0,0
1569342916437.5,51,-34,-29,0,0,0,0,0
1569342916468.75,51,-41,-28,0,0,0,0,0
1569342916500,49,-39,-18,0,0,0,0,0
1569342916531.25,45,-36,-19,0,0,0,0,0
1569342916562.5,38,-39,-39,0,0,0,0,0
1569342916593.75,37,-31,-23,0,0,0,0,0
1569342916625,41,-31,-24,0,0,0,0,0
1569342916656.25,45,-31,-37,0,0,0,0,0
1569342916687.5,40,-30,-41,0,0,0,0,0
1569342916718.75,35,-28,-40,0,0,0,0,0
1569342916750,34,-42,-35,0,0,0,0,0
1569342916781.25,46,-37,-31,0,0,0,0,0
1569342916812.5,43,-43,-33,0,0,0,0,0
1569342916843.75,43,-33,-36,0,0,0,0,0
1569342916875,37,-31,-47,0,0,0,0,0
1569342916906.25,46,-37,-33,0,0,0,0,0
1569342916937.5,29,-37,-40,0,0,0,0,0
1569342916968.75,27,-37,-41,0,0,0,0,0
1569342917000,38,-41,-28,0,0,0,0,0
1569342917031.25,32,-29,-40,0,0,0,0,0
1569342917062.5,38,-33,-38,0,0,0,0,0
1569342917093.75,32,-35,-41,0,0,0,0,0
1569342917125,30,-33,-40,0,0,0,0,0
1569342917156.25,30,-30,-39,0,0,0,0,0
1569342917187.5,22,-34,-37,0,0,0,0,0
1569342917218.75,23,-27,-40,0,0,0,0,0
1569342917250,27,-32,-42,0,0,0,0,0
1569342917281.25,42,-38,-40,0,0,0,0,0
1569342917312.5,46,-47,-43,0,0,0,0,0
1569342917343.75,31,-32,-47,0,0,0,0,0
1569342917375,25,-1,-41,0,0,0,0,0
1569342917406.25,35,-33,-33,0,0,0,0,0
1569342917437.5,26,-32,-33,0,0,0,0,0
1569342917468.75,36,-31,-36,0,0,0,0,0
1569342917500,41,-30,-36,0,0,0,0,0
1569342917531.25,48,-34,-36,0,0,0,0,0
1569342917562.5,55,-40,-23,0,0,0,0,0
1569342917593.75,57,-39,-20,0,0,0,0,0
1569342917625,50,-39,-20,0,0,0,0,0
1569342917656.25,57,-36,-16,0,0,0,0,0
1569342917687.5,57,-35,-8,0,0,0,0,0
1569342917718.75,66,-40,-22,0,0,0,0,0
1569342917750,62,-32,-4,0,0,0,0,0
1569342917781.25,54,-31,-8,0,0,0,0,0
1569342917812.5,52,-32,-6,0,0,0,0,0
1569342917843.75,34,-17,19,0,0,0,0,0
1569342917875,60,-27,30,0,0,0,0,0
1569342917906.25,52,-24,27,0,0,0,0,0
1569342917937.5,43,-19,19,0,0,0,0,0
1569342917968.75,38,-10,33,0,0,0,0,0
1569342918000,35,-6,54,0,0,0,0,0
1569342918031.25,24,-3,59,0,0,0,0,0
1569342918062.5,23,-1,61,0,0,0,0,0
1569342918093.75,9,6,58,0,0,0,0,0
1569342918125,8,10,57,0,0,0,0,0
1569342918156.25,9,20,75,0,0,0,0,0
1569342918187.5,9,3,57,0,0,0,0,0
1569342918218.75,11,5,53,0,0,0,0,0
1569342918250,-6,7,67,0,0,0,0,0
1569342918281.25,-2,6,70,0,0,0,0,0
1569342918312.5,-1,4,68,0,0,0,0,0
1569342918343.75,-3,0,70,0,0,0,0,0
1569342918375,-2,4,67,0,0,0,0,0
1569342918406.25,12,5,67,0,0,0,0,0
1569342918437.5,39,3,68,0,0,0,0,0
1569342918468.75,40,8,51,0,0,0,0,0
1569342918500,40,8,40,0,0,0,0,0
1569342918531.25,60,-23,26,0,0,0,0,0
1569342918562.5,64,-21,14,0,0,0,0,0
1569342918593.75,62,-34,13,0,0,0,0,0
1569342918625,54,-45,12,0,0,0,0,0
1569342918656.25,34,-56,7,0,0,0,0,0
1569342918687.5,29,-58,8,0,0,0,0,0
1569342918718.75,28,-52,21,0,0,0,0,0
1569342918750,18,-58,26,0,0,0,0,0
1569342918781.25,6,-52,24,0,0,0,0,0
1569342918812.5,14,-45,35,0,0,0,0,0
1569342918843.75,17,-40,47,0,0,0,0,0
1569342918875,-2,-34,41,0,0,0,0,0
1569342918906.25,39,-32,66,0,0,0,0,0
1569342918937.5,38,-31,64,0,0,0,0,0
1569342918968.75,24,-21,65,0,0,0,0,0
1569342919000,42,-26,57,0,0,0,0,0
1569342919031.25,42,-34,41,0,0,0,0,0
1569342919062.5,29,-41,32,0,0,0,0,0
1569342919093.75,13,-39,41,0,0,0,0,0
1569342919125,19,-43,46,0,0,0,0,0
1569342919156.25,21,-41,50,0,0,0,0,0
1569342919187.5,13,-38,47,0,0,0,0,0
1569342919218.75,16,-39,49,0,0,0,0,0
1569342919250,15,-42,47,0,0,0,0,0
1569342919281.25,11,-44,41,0,0,0,0,0
1569342919312.5,12,-44,44,0,0,0,0,0
1569342919343.75,12,-44,48,0,0,0,0,0
1569342919375,5,-45,45,0,0,0,0,0
1569342919406.25,7,-47,48,0,0,0,0,0
1569342919437.5,6,-52,47,0,0,0,0,0
1569342919468.75,2,-50,32,0,0,0,0,0
1569342919500,12,-45,39,0,0,0,0,0
1569342919531.25,26,-39,48,0,0,0,0,0
1569342919562.5,14,-39,36,0,0,0,0,0
1569342919593.75,14,-43,33,0,0,0,0,0
1569342919625,26,-44,40,0,0,0,0,0
1569342919656.25,29,-46,41,0,0,0,0,0
1569342919687.5,25,-49,37,0,0,0,0,0
1569342919718.75,29,-47,33,0,0,0,0,0
1569342919750,31,-46,35,0,0,0,0,0
1569342919781.25,33,-45,40,0,0,0,0,0
1569342919812.5,28,-45,28,0,0,0,0,0
1569342919843.75,32,-46,29,0,0,0,0,0
1569342919875,34,-48,37,0,0,0,0,0
1569342919906.25,28,-48,32,0,0,0,0,0
1569342919937.5,26,-47,31,0,0,0,0,0
1569342919968.75,30,-46,36,0,0,0,0,0
1569342920000,29,-45,36,0,0,0,0,0
1569342920031.25,28,-45,34,0,0,0,0,0
1569342920062.5,26,-46,36,0,0,0,0,0
1569342920093.75,26,-46,37,0,0,0,0,0
1569342920125,25,-46,35,0,0,0,0,0
1569342920156.25,28,-46,37,0,0,0,0,0
1569342920187.5,27,-45,36,0,0,0,0,0
1569342920218.75,26,-45,35,0,0,0,0,0
1569342920250,26,-46,37,0,0,0,0,0
1569342920281.25,25,-46,37,0,0,0,0,0
1569342920312.5,24,-46,37,0,0,0,0,0
1569342920343.75,26,-46,36,0,0,0,0,0
1569342920375,26,-46,36,0,0,0,0,0
1569342920406.25,26,-46,37,0,0,0,0,0
1569342920437.5,26,-45,37,0,0,0,0,0
1569342920468.75,25,-46,37,0,0,0,0,0
1569342920500,24,-46,36,0,0,0,0,0
1569342920531.25,26,-46,37,0,0,0,0,0
1569342920562.5,25,-46,37,0,0,0,0,0
1569342920593.75,24,-45,38,0,0,0,0,0
1569342920625,24,-45,38,0,0,0,0,0
1569342920656.25,25,-45,38,0,0,0,0,0
1569342920687.5,23,-46,37,0,0,0,0,0
1569342920718.75,23,-46,37,0,0,0,0,0
1569342920750,22,-46,37,0,0,0,0,0
1569342920781.25,24,-45,36,0,0,0,0,0
1569342920812.5,26,-46,36,0,0,0,0,0
1569342920843.75,27,-46,36,0,0,0,0,0
1569342920875,28,-47,34,0,0,0,0,0
1569342920906.25,29,-46,35,0,0,0,0,0
1569342920937.5,28,-46,35,0,0,0,0,0
1569342920968.75,28,-46,34,0,0,0,0,0
1569342921000,28,-47,33,0,0,0,0,0
1569342921031.25,27,-46,32,0,0,0,0,0
1569342921062.5,28,-47,36,0,0,0,0,0
1569342921093.75,27,-46,36,0,0,0,0,0
1569342921125,24,-46,35,0,0,0,0,0
1569342921156.25,25,-46,36,0,0,0,0,0
1569342921187.5,25,-46,37,0,0,0,0,0
1569342921218.75,24,-45,36,0,0,0,0,0
1569342921250,28,-45,35,0,0,0,0,0
1569342921281.25,30,-46,36,0,0,0,0,0
1569342921312.5,28,-46,35,0,0,0,0,0
1569342921343.75,28,-47,35,0,0,0,0,0
1569342921375,29,-47,36,0,0,0,0,0
1569342921406.25,28,-46,37,0,0,0,0,0
1569342921437.5,27,-47,33,0,0,0,0,0
1569342921468.75,29,-48,34,0,0,0,0,0
1569342921500,30,-47,38,0,0,0,0,0
1569342921531.25,24,-47,31,0,0,0,0,0
1569342921562.5,24,-47,31,0,0,0,0,0
1569342921593.75,28,-49,36,0,0,0,0,0
1569342921625,30,-50,35,0,0,0,0,0
1569342921656.25,24,-50,31,0,0,0,0,0
1569342921687.5,23,-49,31,0,0,0,0,0
1569342921718.75,25,-48,31,0,0,0,0,0
1569342921750,26,-47,30,0,0,0,0,0
1569342921781.25,28,-48,32,0,0,0,0,0
1569342921812.5,28,-47,32,0,0,0,0,0
1569342921843.75,25,-45,35,0,0,0,0,0
1569342921875,23,-44,36,0,0,0,0,0
1569342921906.25,26,-44,37,0,0,0,0,0
1569342921937.5,25,-44,37,0,0,0,0,0
1569342921968.75,27,-44,38,0,0,0,0,0
1569342922000,28,-44,38,0,0,0,0,0
1569342922031.25,28,-44,38,0,0,0,0,0
1569342922062.5,25,-43,37,0,0,0,0,0
1569342922093.75,26,-43,39,0,0,0,0,0
1569342922125,29,-43,39,0,0,0,0,0
1569342922156.25,28,-43,38,0,0,0,0,0
1569342922187.5,26,-43,41,0,0,0,0,0
1569342922218.75,26,-43,42,0,0,0,0,0
1569342922250,27,-42,40,0,0,0,0,0
1569342922281.25,26,-44,41,0,0,0,0,0
1569342922312.5,24,-43,41,0,0,0,0,0
1569342922343.75,24,-43,41,0,0,0,0,0
1569342922375,26,-43,40,0,0,0,0,0
1569342922406.25,25,-43,42,0,0,0,0,0
1569342922437.5,24,-43,42,0,0,0,0,0
1569342922468.75,22,-42,41,0,0,0,0,0
1569342922500,23,-43,42,0,0,0,0,0
1569342922531.25,23,-43,44,0,0,0,0,0
1569342922562.5,22,-43,42,0,0,0,0,0
1569342922593.75,23,-44,40,0,0,0,0,0
1569342922625,24,-44,41,0,0,0,0,0
1569342922656.25,22,-44,42,0,0,0,0,0
1569342922687.5,21,-44,40,0,0,0,0,0
1569342922718.75,21,-44,40,0,0,0,0,0
1569342922750,21,-44,42,0,0,0,0,0
1569342922781.25,20,-43,41,0,0,0,0,0
1569342922812.5,19,-44,41,0,0,0,0,0
1569342922843.75,17,-44,44,0,0,0,0,0
1569342922875,15,-43,43,0,0,0,0,0
1569342922906.25,10,-44,43,0,0,0,0,0
1569342922937.5,9,-42,43,0,0,0,0,0
1569342922968.75,9,-42,42,0,0,0,0,0
1569342923000,10,-42,37,0,0,0,0,0
1569342923031.25,8,-42,37,0,0,0,0,0
1569342923062.5,8,-42,37,0,0,0,0,0
1569342923093.75,9,-43,29,0,0,0,0,0
1569342923125,10,-46,24,0,0,0,0,0
1569342923156.25,9,-49,22,0,0,0,0,0
1569342923187.5,10,-54,25,0,0,0,0,0
1569342923218.75,12,-57,18,0,0,0,0,0
1569342923250,15,-60,14,0,0,0,0,0
1569342923281.25,19,-63,11,0,0,0,0,0
1569342923312.5,25,-59,16,0,0,0,0,0
1569342923343.75,27,-60,21,0,0,0,0,0
1569342923375,28,-62,18,0,0,0,0,0
1569342923406.25,52,-78,41,0,0,0,0,0
1569342923437.5,48,-62,34,0,0,0,0,0
1569342923468.75,26,-62,5,0,0,0,0,0
1569342923500,23,-62,0,0,0,0,0,0
1569342923531.25,27,-53,13,0,0,0,0,0
1569342923562.5,21,-51,16,0,0,0,0,0
1569342923593.75,20,-52,13,0,0,0,0,0
1569342923625,26,-52,10,0,0,0,0,0
1569342923656.25,23,-52,9,0,0,0,0,0
1569342923687.5,21,-54,6,0,0,0,0,0
1569342923718.75,23,-60,3,0,0,0,0,0
1569342923750,31,-63,3,0,0,0,0,0
1569342923781.25,29,-63,3,0,0,0,0,0
1569342923812.5,25,-63,3,0,0,0,0,0
1569342923843.75,30,-61,2,0,0,0,0,0
1569342923875,33,-59,1,0,0,0,0,0
1569342923906.25,34,-58,-2,0,0,0,0,0
1569342923937.5,33,-57,2,0,0,0,0,0
1569342923968.75,29,-56,3,0,0,0,0,0
1569342924000,27,-56,3,0,0,0,0,0
1569342924031.25,31,-56,2,0,0,0,0,0
1569342924062.5,32,-56,1,0,0,0,0,0
1569342924093.75,29,-56,2,0,0,0,0,0
1569342924125,28,-55,2,0,0,0,0,0
1569342924156.25,28,-55,2,0,0,0,0,0
1569342924187.5,32,-56,2,0,0,0,0,0
1569342924218.75,32,-56,1,0,0,0,0,0
1569342924250,28,-55,2,0,0,0,0,0
1569342924281.25,28,-55,3,0,0,0,0,0
1569342924312.5,30,-56,2,0,0,0,0,0
1569342924343.75,31,-56,2,0,0,0,0,0
1569342924375,30,-56,2,0,0,0,0,0
1569342924406.25,29,-55,2,0,0,0,0,0
1569342924437.5,29,-55,2,0,0,0,0,0
1569342924468.75,30,-56,2,0,0,0,0,0
1569342924500,30,-56,2,0,0,0,0,0
1569342924531.25,30,-56,2,0,0,0,0,0
1569342924562.5,29,-55,2,0,0,0,0,0
1569342924593.75,29,-55,2,0,0,0,0,0
1569342924625,30,-56,2,0,0,0,0,0
1569342924656.25,30,-56,2,0,0,0,0,0
1569342924687.5,29,-55,2,0,0,0,0,0
1569342924718.75,30,-55,2,0,0,0,0,0
1569342924750,29,-55,2,0,0,0,0,0
1569342924781.25,29,-55,2,0,0,0,0,0
1569342924812.5,31,-56,1,0,0,0,0,0
1569342924843.75,30,-56,1,0,0,0,0,0
1569342924875,30,-56,2,0,0,0,0,0
1569342924906.25,29,-55,2,0,0,0,0,0
1569342924937.5,29,-55,2,0,0,0,0,0
1569342924968.75,30,-56,1,0,0,0,0,0
1569342925000,29,-55,2,0,0,0,0,0
1569342925031.25,29,-55,1,0,0,0,0,0
1569342925062.5,30,-55,2,0,0,0,0,0
1569342925093.75,31,-56,2,0,0,0,0,0
1569342925125,30,-56,2,0,0,0,0,0
1569342925156.25,29,-55,2,0,0,0,0,0
1569342925187.5,29,-56,2,0,0,0,0,0
1569342925218.75,30,-55,2,0,0,0,0,0
1569342925250,30,-56,2,0,0,0,0,0
1569342925281.25,29,-55,2,0,0,0,0,0
1569342925312.5,29,-55,2,0,0,0,0,0
1569342925343.75,30,-56,2,0,0,0,0,0
1569342925375,29,-55,1,0,0,0,0,0
1569342925406.25,29,-55,2,0,0,0,0,0
1569342925437.5,30,-56,2,0,0,0,0,0
1569342925468.75,29,-55,2,0,0,0,0,0
1569342925500,30,-56,2,0,0,0,0,0
1569342925531.25,30,-56,1,0,0,0,0,0
1569342925562.5,29,-55,2,0,0,0,0,0
1569342925593.75,30,-56,2,0,0,0,0,0
1569342925625,30,-55,2,0,0,0,0,0
1569342925656.25,30,-55,2,0,0,0,0,0
1569342925687.5,30,-55,2,0,0,0,0,0
1569342925718.75,32,-45,5,0,0,0,0,0
1569342925750,22,-57,1,0,0,0,0,0
1569342925781.25,29,-55,3,0,0,0,0,0
1569342925812.5,31,-55,2,0,0,0,0,0
1569342925843.75,31,-56,1,0,0,0,0,0
1569342925875,31,-56,2,0,0,0,0,0
1569342925906.25,31,-56,0,0,0,0,0,0
1569342925937.5,34,-56,2,0,0,0,0,0
1569342925968.75,29,-55,3,0,0,0,0,0
1569342926000,30,-55,2,0,0,0,0,0
1569342926031.25,31,-55,2,0,0,0,0,0
1569342926062.5,31,-55,2,0,0,0,0,0
1569342926093.75,31,-55,2,0,0,0,0,0
1569342926125,30,-54,2,0,0,0,0,0
1569342926156.25,31,-52,3,0,0,0,0,0
1569342926187.5,26,-54,2,0,0,0,0,0
1569342926218.75,32,-55,1,0,0,0,0,0
1569342926250,31,-56,1,0,0,0,0,0
1569342926281.25,30,-56,1,0,0,0,0,0
1569342926312.5,29,-58,0,0,0,0,0,0
1569342926343.75,32,-55,0,0,0,0,0,0
1569342926375,32,-55,0,0,0,0,0,0
1569342926406.25,31,-55,0,0,0,0,0,0
1569342926437.5,30,-55,0,0,0,0,0,0
1569342926468.75,30,-54,0,0,0,0,0,0
1569342926500,33,-55,-1,0,0,0,0,0
1569342926531.25,32,-54,-1,0,0,0,0,0
1569342926562.5,31,-55,-1,0,0,0,0,0
1569342926593.75,31,-55,-1,0,0,0,0,0
1569342926625,32,-55,-1,0,0,0,0,0
1569342926656.25,32,-55,-1,0,0,0,0,0
1569342926687.5,32,-55,-1,0,0,0,0,0
1569342926718.75,31,-54,-1,0,0,0,0,0
1569342926750,31,-54,-1,0,0,0,0,0
1569342926781.25,32,-54,-1,0,0,0,0,0
1569342926812.5,32,-55,-1,0,0,0,0,0
1569342926843.75,31,-54,-1,0,0,0,0,0
1569342926875,32,-54,-1,0,0,0,0,0
1569342926906.25,32,-54,-1,0,0,0,0,0
1569342926937.5,32,-54,-1,0,0,0,0,0
1569342926968.75,31,-54,-1,0,0,0,0,0
1569342927000,32,-54,-1,0,0,0,0,0
1569342927031.25,32,-55,-1,0,0,0,0,0
1569342927062.5,31,-54,-1,0,0,0,0,0
1569342927093.75,32,-54,-1,0,0,0,0,0
1569342927125,31,-54,-1,0,0,0,0,0
1569342927156.25,32,-54,-1,0,0,0,0,0
1569342927187.5,32,-54,-1,0,0,0,0,0
1569342927218.75,32,-54,-1,0,0,0,0,0
1569342927250,31,-54,-1,0,0,0,0,0
1569342927281.25,31,-54,-1,0,0,0,0,0
1569342927312.5,32,-54,-2,0,0,0,0,0
1569342927343.75,32,-55,-1,0,0,0,0,0
1569342927375,32,-54,-1,0,0,0,0,0
1569342927406.25,31,-54,-1,0,0,0,0,0
1569342927437.5,32,-55,-2,0,0,0,0,0
1569342927468.75,31,-54,-2,0,0,0,0,0
1569342927500,32,-55,-2,0,0,0,0,0
1569342927531.25,32,-54,-1,0,0,0,0,0
1569342927562.5,31,-54,-1,0,0,0,0,0
1569342927593.75,32,-54,-1,0,0,0,0,0
1569342927625,32,-54,-2,0,0,0,0,0
1569342927656.25,32,-54,-2,0,0,0,0,0
1569342927687.5,32,-54,-2,0,0,0,0,0
1569342927718.75,31,-54,-2,0,0,0,0,0
1569342927750,32,-54,-2,0,0,0,0,0
1569342927781.25,31,-54,-2,0,0,0,0,0
1569342927812.5,32,-54,-2,0,0,0,0,0
1569342927843.75,32,-54,-2,0,0,0,0,0
1569342927875,31,-55,-2,0,0,0,0,0
1569342927906.25,32,-54,-2,0,0,0,0,0
1569342927937.5,31,-54,-2,0,0,0,0,0
1569342927968.75,32,-54,-2,0,0,0,0,0
1569342928000,32,-54,-2,0,0,0,0,0
1569342928031.25,31,-55,-2,0,0,0,0,0
1569342928062.5,31,-54,-2,0,0,0,0,0
1569342928093.75,32,-54,-2,0,0,0,0,0
1569342928125,31,-55,-2,0,0,0,0,0
1569342928156.25,31,-54,-2,0,0,0,0,0
1569342928187.5,32,-55,-2,0,0,0,0,0
1569342928218.75,31,-54,-2,0,0,0,0,0
1569342928250,31,-54,-2,0,0,0,0,0
1569342928281.25,31,-54,-2,0,0,0,0,0
1569342928312.5,31,-54,-2,0,0,0,0,0
1569342928343.75,32,-55,-2,0,0,0,0,0
1569342928375,31,-54,-2,0,0,0,0,0
1569342928406.25,31,-54,-2,0,0,0,0,0
1569342928437.5,32,-55,-2,0,0,0,0,0
1569342928468.75,31,-54,-2,0,0,0,0,0
1569342928500,32,-54,-2,0,0,0,0,0
1569342928531.25,32,-55,-2,0,0,0,0,0
1569342928562.5,31,-54,-2,0,0,0,0,0
1569342928593.75,32,-55,-2,0,0,0,0,0
1569342928625,31,-54,-2,0,0,0,0,0
1569342928656.25,32,-55,-2,0,0,0,0,0
1569342928687.5,31,-54,-2,0,0,0,0,0
1569342928718.75,32,-54,-2,0,0,0,0,0
1569342928750,32,-54,-2,0,0,0,0,0
1569342928781.25,31,-55,-2,0,0,0,0,0
1569342928812.5,31,-54,-2,0,0,0,0,0
1569342928843.75,32,-54,-2,0,0,0,0,0
1569342928875,31,-55,-2,0,0,0,0,0
1569342928906.25,31,-54,-2,0,0,0,0,0
1569342928937.5,32,-55,-2,0,0,0,0,0
1569342928968.75,31,-54,-2,0,0,0,0,0
1569342929000,31,-54,-2,0,0,0,0,0
1569342929031.25,31,-55,-2,0,0,0,0,0
1569342929062.5,31,-54,-2,0,0,0,0,0
1569342929093.75,32,-54,-2,0,0,0,0,0
1569342929125,24,-53,-1,0,0,0,0,0
1569342929156.25,30,-55,-2,0,0,0,0,0
1569342929187.5,37,-59,-4,0,0,0,0,0
1569342929218.75,31,-54,-2,0,0,0,0,0
1569342929250,30,-54,-2,0,0,0,0,0
1569342929281.25,32,-54,-2,0,0,0,0,0
1569342929312.5,32,-54,-2,0,0,0,0,0
1569342929343.75,32,-54,-2,0,0,0,0,0
1569342929375,31,-54,-2,0,0,0,0,0
1569342929406.25,32,-54,-2,0,0,0,0,0
1569342929437.5,32,-54,-2,0,0,0,0,0
1569342929468.75,32,-54,-2,0,0,0,0,0
1569342929500,32,-54,-2,0,0,0,0,0
1569342929531.25,32,-54,-2,0,0,0,0,0
1569342929562.5,32,-54,-2,0,0,0,0,0
1569342929593.75,32,-54,-2,0,0,0,0,0
1569342929625,31,-54,-2,0,0,0,0,0
1569342929656.25,32,-54,-2,0,0,0,0,0
1569342929687.5,32,-54,-2,0,0,0,0,0
1569342929718.75,32,-54,-2,0,0,0,0,0
1569342929750,32,-54,-2,0,0,0,0,0
1569342929781.25,32,-54,-2,0,0,0,0,0
1569342929812.5,32,-54,-2,0,0,0,0,0
1569342929843.75,32,-54,-2,0,0,0,0,0
1569342929875,31,-54,-2,0,0,0,0,0
1569342929906.25,32,-54,-2,0,0,0,0,0
1569342929937.5,32,-55,-2,0,0,0,0,0
1569342929968.75,32,-54,-2,0,0,0,0,0
1569342930000,31,-54,-2,0,0,0,0,0
1569342930031.25,32,-54,-2,0,0,0,0,0
1569342930062.5,32,-54,-2,0,0,0,0,0
1569342930093.75,31,-54,-2,0,0,0,0,0
1569342930125,32,-54,-2,0,0,0,0,0
1569342930156.25,32,-54,-2,0,0,0,0,0
1569342930187.5,31,-54,-2,0,0,0,0,0
1569342930218.75,32,-54,-2,0,0,0,0,0
1569342930250,32,-54,-2,0,0,0,0,0
1569342930281.25,32,-54,-3,0,0,0,0,0
1569342930312.5,32,-54,-3,0,0,0,0,0
1569342930343.75,32,-54,-3,0,0,0,0,0
1569342930375,32,-54,-3,0,0,0,0,0
1569342930406.25,31,-54,-2,0,0,0,0,0
1569342930437.5,32,-54,-3,0,0,0,0,0
1569342930468.75,32,-54,-3,0,0,0,0,0
1569342930500,32,-54,-3,0,0,0,0,0
1569342930531.25,32,-54,-3,0,0,0,0,0
1569342930562.5,32,-54,-3,0,0,0,0,0
1569342930593.75,32,-54,-3,0,0,0,0,0
1569342930625,32,-54,-3,0,0,0,0,0
1569342930656.25,32,-55,-2,0,0,0,0,0
1569342930687.5,32,-54,-3,0,0,0,0,0
1569342930718.75,32,-54,-3,0,0,0,0,0
1569342930750,32,-54,-2,0,0,0,0,0
1569342930781.25,32,-54,-3,0,0,0,0,0
1569342930812.5,32,-54,-3,0,0,0,0,0
1569342930843.75,32,-54,-3,0,0,0,0,0
1569342930875,32,-54,-3,0,0,0,0,0
1569342930906.25,32,-54,-3,0,0,0,0,0
1569342930937.5,32,-54,-3,0,0,0,0,0
1569342930968.75,32,-54,-3,0,0,0,0,0
1569342931000,32,-54,-3,0,0,0,0,0
1569342931031.25,32,-54,-3,0,0,0,0,0
1569342931062.5,32,-54,-2,0,0,0,0,0
1569342931093.75,32,-54,-3,0,0,0,0,0
1569342931125,32,-54,-3,0,0,0,0,0
1569342931156.25,32,-54,-3,0,0,0,0,0
1569342931187.5,32,-54,-2,0,0,0,0,0
1569342931218.75,32,-54,-2,0,0,0,0,0
1569342931250,32,-54,-2,0,0,0,0,0
1569342931281.25,32,-54,-3,0,0,0,0,0
1569342931312.5,32,-54,-2,0,0,0,0,0
1569342931343.75,32,-54,-2,0,0,0,0,0
1569342931375,32,-54,-2,0,0,0,0,0
1569342931406.25,32,-54,-2,0,0,0,0,0
1569342931437.5,32,-54,-2,0,0,0,0,0
1569342931468.75,32,-54,-2,0,0,0,0,0
1569342931500,32,-54,-2,0,0,0,0,0
1569342931531.25,32,-54,-2,0,0,0,0,0
1569342931562.5,32,-54,-2,0,0,0,0,0
1569342931593.75,32,-54,-2,0,0,0,0,0
1569342931625,32,-54,-3,0,0,0,0,0
1569342931656.25,32,-54,-2,0,0,0,0,0
1569342931687.5,32,-54,-2,0,0,0,0,0
1569342931718.75,32,-54,-3,0,0,0,0,0
1569342931750,32,-54,-2,0,0,0,0,0
1569342931781.25,32,-54,-2,0,0,0,0,0
1569342931812.5,31,-54,-2,0,0,0,0,0
1569342931843.75,32,-54,-2,0,0,0,0,0
1569342931875,32,-54,-3,0,0,0,0,0
1569342931906.25,31,-54,-3,0,0,0,0,0
1569342931937.5,32,-54,-3,0,0,0,0,0
1569342931968.75,32,-54,-2,0,0,0,0,0
1569342932000,32,-54,-3,0,0,0,0,0
1569342932031.25,32,-54,-3,0,0,0,0,0
1569342932062.5,31,-54,-3,0,0,0,0,0
1569342932093.75,31,-54,-3,0,0,0,0,0
1569342932125,32,-54,-3,0,0,0,0,0
1569342932156.25,31,-54,-3,0,0,0,0,0
1569342932187.5,32,-54,-3,0,0,0,0,0
1569342932218.75,32,-54,-3,0,0,0,0,0
1569342932250,32,-54,-3,0,0,0,0,0
1569342932281.25,32,-54,-3,0,0,0,0,0
1569342932312.5,32,-54,-3,0,0,0,0,0
1569342932343.75,32,-54,-3,0,0,0,0,0
1569342932375,32,-54,-3,0,0,0,0,0
1569342932406.25,32,-54,-3,0,0,0,0,0
1569342932437.5,32,-54,-3,0,0,0,0,0
1569342932468.75,32,-54,-3,0,0,0,0,0
1569342932500,32,-54,-3,0,0,0,0,0
1569342932531.25,32,-54,-3,0,0,0,0,0
1569342932562.5,32,-54,-3,0,0,0,0,0
1569342932593.75,32,-54,-3,0,0,0,0,0
1569342932625,32,-54,-3,0,0,0,0,0
1569342932656.25,32,-54,-3,0,0,0,0,0
1569342932687.5,32,-54,-3,0,0,0,0,0
1569342932718.75,32,-54,-3,0,0,0,0,0
1569342932750,32,-54,-3,0,0,0,0,0
1569342932781.25,32,-54,-3,0,0,0,0,0
1569342932812.5,32,-54,-3,0,0,0,0,0
1569342932843.75,32,-54,-3,0,0,0,0,0
1569342932875,32,-54,-3,0,0,0,0,0
1569342932906.25,32,-54,-3,0,0,0,0,0
1569342932937.5,32,-54,-3,0,0,0,0,0
1569342932968.75,31,-54,-3,0,0,0,0,0
1569342933000,32,-54,-3,0,0,0,0,0
1569342933031.25,32,-54,-3,0,0,0,0,0
1569342933062.5,32,-54,-3,0,0,0,0,0
1569342933093.75,32,-54,-3,0,0,0,0,0
1569342933125,31,-54,-3,0,0,0,0,0
1569342933156.25,32,-54,-3,0,0,0,0,0
1569342933187.5,33,-54,-3,0,0,0,0,0
1569342933218.75,31,-54,-3,0,0,0,0,0
1569342933250,32,-54,-3,0,0,0,0,0
1569342933281.25,32,-54,-3,0,0,0,0,0
1569342933312.5,32,-54,-3,0,0,0,0,0
1569342933343.75,32,-54,-2,0,0,0,0,0
1569342933375,32,-54,-3,0,0,0,0,0
1569342933406.25,32,-54,-2,0,0,0,0,0
1569342933437.5,32,-54,-2,0,0,0,0,0
1569342933468.75,32,-54,-2,0,0,0,0,0
1569342933500,32,-54,-2,0,0,0,0,0
1569342933531.25,32,-54,-2,0,0,0,0,0
1569342933562.5,32,-54,-2,0,0,0,0,0
1569342933593.75,32,-54,-2,0,0,0,0,0
1569342933625,32,-54,-2,0,0,0,0,0
1569342933656.25,32,-54,-2,0,0,0,0,0
1569342933687.5,32,-54,-2,0,0,0,0,0
1569342933718.75,32,-54,-2,0,0,0,0,0
1569342933750,32,-54,-2,0,0,0,0,0
1569342933781.25,32,-54,-2,0,0,0,0,0
1569342933812.5,32,-54,-1,0,0,0,0,0
1569342933843.75,32,-54,-1,0,0,0,0,0
1569342933875,32,-54,-1,0,0,0,0,0
1569342933906.25,32,-54,-1,0,0,0,0,0
1569342933937.5,32,-54,-2,0,0,0,0,0
1569342933968.75,32,-54,-1,0,0,0,0,0
1569342934000,32,-54,-1,0,0,0,0,0
1569342934031.25,32,-54,-2,0,0,0,0,0
1569342934062.5,32,-54,-1,0,0,0,0,0
1569342934093.75,32,-54,-1,0,0,0,0,0
1569342934125,32,-54,-1,0,0,0,0,0
1569342934156.25,32,-54,-2,0,0,0,0,0
1569342934187.5,32,-54,-1,0,0,0,0,0
1569342934218.75,32,-54,-1,0,0,0,0,0
1569342934250,32,-54,-2,0,0,0,0,0
1569342934281.25,32,-54,-1,0,0,0,0,0
1569342934312.5,32,-54,-2,0,0,0,0,0
1569342934343.75,32,-54,-1,0,0,0,0,0
1569342934375,32,-54,-1,0,0,0,0,0
1569342934406.25,32,-54,-1,0,0,0,0,0
1569342934437.5,32,-54,-1,0,0,0,0,0
1569342934468.75,32,-54,-2,0,0,0,0,0
1569342934500,32,-54,-1,0,0,0,0,0
1569342934531.25,32,-54,-1,0,0,0,0,0
1569342934562.5,32,-54,-1,0,0,0,0,0
1569342934593.75,32,-54,-1,0,0,0,0,0
1569342934625,32,-54,-2,0,0,0,0,0
1569342934656.25,32,-54,-1,0,0,0,0,0
1569342934687.5,32,-54,-1,0,0,0,0,0
1569342934718.75,32,-54,-1,0,0,0,0,0
1569342934750,32,-54,-2,0,0,0,0,0
1569342934781.25,32,-54,-1,0,0,0,0,0
1569342934812.5,32,-54,-1,0,0,0,0,0
1569342934843.75,32,-54,-1,0,0,0,0,0
1569342934875,32,-54,-1,0,0,0,0,0
1569342934906.25,32,-54,-1,0,0,0,0,0
1569342934937.5,32,-54,-1,0,0,0,0,0
1569342934968.75,32,-54,-1,0,0,0,0,0
1569342935000,32,-54,-1,0,0,0,0,0
1569342935031.25,31,-54,-1,0,0,0,0,0
1569342935062.5,33,-55,-1,0,0,0,0,0
1569342935093.75,33,-57,-1,0,0,0,0,0
1569342935125,30,-53,0,0,0,0,0,0
1569342935156.25,32,-60,3,0,0,0,0,0
1569342935187.5,37,-66,-3,0,0,0,0,0
1569342935218.75,41,-67,-6,0,0,0,0,0
1569342935250,36,-66,-5,0,0,0,0,0
1569342935281.25,26,-60,-1,0,0,0,0,0
1569342935312.5,25,-62,1,0,0,0,0,0
1569342935343.75,25,-63,-3,0,0,0,0,0
1569342935375,27,-62,2,0,0,0,0,0
1569342935406.25,25,-59,6,0,0,0,0,0
1569342935437.5,20,-56,9,0,0,0,0,0
1569342935468.75,21,-55,13,0,0,0,0,0
1569342935500,21,-55,13,0,0,0,0,0
1569342935531.25,14,-55,13,0,0,0,0,0
1569342935562.5,10,-54,17,0,0,0,0,0
1569342935593.75,11,-52,17,0,0,0,0,0
1569342935625,13,-52,13,0,0,0,0,0
1569342935656.25,11,-51,13,0,0,0,0,0
1569342935687.5,8,-52,13,0,0,0,0,0
1569342935718.75,12,-55,25,0,0,0,0,0
1569342935750,9,-60,30,0,0,0,0,0
1569342935781.25,4,-65,27,0,0,0,0,0
1569342935812.5,-3,-66,31,0,0,0,0,0
1569342935843.75,0,-65,34,0,0,0,0,0
1569342935875,-3,-63,32,0,0,0,0,0
1569342935906.25,-6,-59,27,0,0,0,0,0
1569342935937.5,-1,-57,28,0,0,0,0,0
1569342935968.75,0,-52,30,0,0,0,0,0
1569342936000,-2,-50,28,0,0,0,0,0
1569342936031.25,-3,-50,24,0,0,0,0,0
1569342936062.5,-6,-49,23,0,0,0,0,0
1569342936093.75,-7,-49,29,0,0,0,0,0
1569342936125,-5,-51,29,0,0,0,0,0
1569342936156.25,-7,-51,29,0,0,0,0,0
1569342936187.5,-12,-54,34,0,0,0,0,0
1569342936218.75,-8,-58,32,0,0,0,0,0
1569342936250,0,-63,28,0,0,0,0,0
1569342936281.25,-4,-62,30,0,0,0,0,0
1569342936312.5,-3,-60,31,0,0,0,0,0
1569342936343.75,-3,-56,31,0,0,0,0,0
1569342936375,-3,-55,26,0,0,0,0,0
1569342936406.25,-5,-53,23,0,0,0,0,0
1569342936437.5,-5,-48,20,0,0,0,0,0
1569342936468.75,-3,-49,26,0,0,0,0,0
1569342936500,-4,-51,25,0,0,0,0,0
1569342936531.25,-3,-54,21,0,0,0,0,0
1569342936562.5,0,-58,34,0,0,0,0,0
1569342936593.75,2,-58,37,0,0,0,0,0
1569342936625,10,-60,40,0,0,0,0,0
1569342936656.25,13,-61,35,0,0,0,0,0
1569342936687.5,16,-64,31,0,0,0,0,0
1569342936718.75,14,-64,31,0,0,0,0,0
1569342936750,14,-64,26,0,0,0,0,0
1569342936781.25,16,-60,23,0,0,0,0,0
1569342936812.5,12,-57,22,0,0,0,0,0
1569342936843.75,11,-58,22,0,0,0,0,0
1569342936875,11,-62,23,0,0,0,0,0
1569342936906.25,14,-60,24,0,0,0,0,0
1569342936937.5,14,-59,24,0,0,0,0,0
1569342936968.75,15,-57,24,0,0,0,0,0
1569342937000,15,-57,25,0,0,0,0,0
1569342937031.25,14,-58,24,0,0,0,0,0
1569342937062.5,15,-58,23,0,0,0,0,0
1569342937093.75,15,-58,23,0,0,0,0,0
1569342937125,15,-58,23,0,0,0,0,0
1569342937156.25,14,-56,23,0,0,0,0,0
1569342937187.5,15,-59,24,0,0,0,0,0
1569342937218.75,15,-58,24,0,0,0,0,0
1569342937250,15,-58,23,0,0,0,0,0
1569342937281.25,15,-58,23,0,0,0,0,0
1569342937312.5,15,-57,23,0,0,0,0,0
1569342937343.75,15,-58,23,0,0,0,0,0
1569342937375,15,-58,23,0,0,0,0,0
1569342937406.25,15,-58,23,0,0,0,0,0
1569342937437.5,16,-57,23,0,0,0,0,0
1569342937468.75,16,-57,23,0,0,0,0,0
1569342937500,15,-58,24,0,0,0,0,0
1569342937531.25,14,-58,24,0,0,0,0,0
1569342937562.5,15,-58,24,0,0,0,0,0
1569342937593.75,15,-57,24,0,0,0,0,0
1569342937625,15,-57,24,0,0,0,0,0
1569342937656.25,16,-57,24,0,0,0,0,0
1569342937687.5,17,-58,23,0,0,0,0,0
1569342937718.75,14,-57,23,0,0,0,0,0
1569342937750,16,-57,26,0,0,0,0,0
1569342937781.25,14,-57,25,0,0,0,0,0
1569342937812.5,13,-57,25,0,0,0,0,0
1569342937843.75,14,-57,25,0,0,0,0,0
1569342937875,16,-57,24,0,0,0,0,0
1569342937906.25,17,-58,22,0,0,0,0,0
1569342937937.5,16,-58,22,0,0,0,0,0
1569342937968.75,15,-58,22,0,0,0,0,0
1569342938000,16,-58,23,0,0,0,0,0
1569342938031.25,16,-58,22,0,0,0,0,0
1569342938062.5,15,-58,22,0,0,0,0,0
1569342938093.75,16,-58,22,0,0,0,0,0
1569342938125,16,-58,21,0,0,0,0,0
1569342938156.25,18,-58,21,0,0,0,0,0
1569342938187.5,18,-58,21,0,0,0,0,0
1569342938218.75,16,-58,21,0,0,0,0,0
1569342938250,17,-57,21,0,0,0,0,0
1569342938281.25,17,-58,21,0,0,0,0,0
1569342938312.5,18,-58,21,0,0,0,0,0
1569342938343.75,17,-57,22,0,0,0,0,0
1569342938375,17,-57,21,0,0,0,0,0
1569342938406.25,19,-58,21,0,0,0,0,0
1569342938437.5,17,-58,21,0,0,0,0,0
1569342938468.75,17,-58,21,0,0,0,0,0
1569342938500,17,-57,22,0,0,0,0,0
1569342938531.25,18,-57,21,0,0,0,0,0
1569342938562.5,18,-58,21,0,0,0,0,0
1569342938593.75,18,-57,21,0,0,0,0,0
1569342938625,18,-57,21,0,0,0,0,0
1569342938656.25,17,-57,21,0,0,0,0,0
1569342938687.5,18,-58,21,0,0,0,0,0
1569342938718.75,19,-57,21,0,0,0,0,0
1569342938750,13,-56,25,0,0,0,0,0
1569342938781.25,25,-62,16,0,0,0,0,0
1569342938812.5,25,-59,18,0,0,0,0,0
1569342938843.75,17,-57,21,0,0,0,0,0
1569342938875,17,-57,21,0,0,0,0,0
1569342938906.25,18,-57,20,0,0,0,0,0
1569342938937.5,18,-57,21,0,0,0,0,0
1569342938968.75,18,-57,21,0,0,0,0,0
1569342939000,17,-57,22,0,0,0,0,0
1569342939031.25,19,-58,20,0,0,0,0,0
1569342939062.5,19,-57,21,0,0,0,0,0
1569342939093.75,18,-58,21,0,0,0,0,0
1569342939125,18,-57,21,0,0,0,0,0
1569342939156.25,18,-57,21,0,0,0,0,0
1569342939187.5,19,-58,21,0,0,0,0,0
1569342939218.75,19,-56,22,0,0,0,0,0
1569342939250,19,-57,21,0,0,0,0,0
1569342939281.25,19,-57,21,0,0,0,0,0
1569342939312.5,19,-56,22,0,0,0,0,0
1569342939343.75,19,-57,22,0,0,0,0,0
1569342939375,18,-57,21,0,0,0,0,0
1569342939406.25,18,-57,22,0,0,0,0,0
1569342939437.5,18,-57,22,0,0,0,0,0
1569342939468.75,20,-57,22,0,0,0,0,0
1569342939500,18,-57,22,0,0,0,0,0
1569342939531.25,18,-57,22,0,0,0,0,0
1569342939562.5,19,-57,21,0,0,0,0,0
1569342939593.75,19,-57,21,0,0,0,0,0
1569342939625,19,-57,21,0,0,0,0,0
1569342939656.25,20,-57,21,0,0,0,0,0
1569342939687.5,18,-56,22,0,0,0,0,0
1569342939718.75,18,-56,22,0,0,0,0,0
1569342939750,19,-56,22,0,0,0,0,0
1569342939781.25,19,-57,21,0,0,0,0,0
1569342939812.5,20,-57,21,0,0,0,0,0
1569342939843.75,18,-57,22,0,0,0,0,0
1569342939875,19,-56,22,0,0,0,0,0
1569342939906.25,20,-57,22,0,0,0,0,0
1569342939937.5,18,-57,22,0,0,0,0,0
1569342939968.75,19,-57,22,0,0,0,0,0
1569342940000,19,-56,22,0,0,0,0,0
1569342940031.25,20,-57,22,0,0,0,0,0
1569342940062.5,19,-57,22,0,0,0,0,0
1569342940093.75,19,-57,21,0,0,0,0,0
1569342940125,19,-56,22,0,0,0,0,0
1569342940156.25,19,-56,22,0,0,0,0,0
1569342940187.5,19,-56,22,0,0,0,0,0
1569342940218.75,19,-57,22,0,0,0,0,0
1569342940250,19,-57,22,0,0,0,0,0
1569342940281.25,20,-57,22,0,0,0,0,0
1569342940312.5,19,-56,22,0,0,0,0,0
1569342940343.75,19,-57,22,0,0,0,0,0
1569342940375,19,-57,22,0,0,0,0,0
1569342940406.25,19,-56,23,0,0,0,0,0
1569342940437.5,19,-56,23,0,0,0,0,0
1569342940468.75,19,-57,22,0,0,0,0,0
1569342940500,18,-57,22,0,0,0,0,0
1569342940531.25,19,-57,22,0,0,0,0,0
1569342940562.5,19,-57,23,0,0,0,0,0
1569342940593.75,19,-56,23,0,0,0,0,0
1569342940625,20,-56,22,0,0,0,0,0
1569342940656.25,19,-56,23,0,0,0,0,0
1569342940687.5,19,-56,23,0,0,0,0,0
1569342940718.75,19,-57,23,0,0,0,0,0
1569342940750,19,-56,23,0,0,0,0,0
1569342940781.25,19,-56,23,0,0,0,0,0
1569342940812.5,19,-57,22,0,0,0,0,0
1569342940843.75,19,-56,23,0,0,0,0,0
1569342940875,19,-56,23,0,0,0,0,0
1569342940906.25,19,-56,23,0,0,0,0,0
1569342940937.5,19,-56,23,0,0,0,0,0
1569342940968.75,19,-56,23,0,0,0,0,0
1569342941000,19,-56,23,0,0,0,0,0
1569342941031.25,20,-56,23,0,0,0,0,0
1569342941062.5,19,-56,23,0,0,0,0,0
1569342941093.75,19,-56,23,0,0,0,0,0
1569342941125,19,-56,23,0,0,0,0,0
1569342941156.25,19,-56,23,0,0,0,0,0
1569342941187.5,22,-57,22,0,0,0,0,0
1569342941218.75,15,-55,25,0,0,0,0,0
1569342941250,19,-56,23,0,0,0,0,0
1569342941281.25,21,-57,23,0,0,0,0,0
1569342941312.5,19,-56,24,0,0,0,0,0
1569342941343.75,17,-56,24,0,0,0,0,0
1569342941375,20,-57,23,0,0,0,0,0
1569342941406.25,19,-56,24,0,0,0,0,0
1569342941437.5,18,-55,25,0,0,0,0,0
1569342941468.75,19,-56,24,0,0,0,0,0
1569342941500,19,-56,24,0,0,0,0,0
1569342941531.25,19,-56,24,0,0,0,0,0
1569342941562.5,19,-56,24,0,0,0,0,0
1569342941593.75,19,-56,24,0,0,0,0,0
1569342941625,19,-56,24,0,0,0,0,0
1569342941656.25,18,-56,24,0,0,0,0,0
1569342941687.5,19,-56,24,0,0,0,0,0
1569342941718.75,19,-56,24,0,0,0,0,0
1569342941750,19,-56,24,0,0,0,0,0
1569342941781.25,19,-56,24,0,0,0,0,0
1569342941812.5,19,-56,24,0,0,0,0,0
1569342941843.75,19,-56,24,0,0,0,0,0
1569342941875,19,-56,24,0,0,0,0,0
1569342941906.25,19,-56,24,0,0,0,0,0
1569342941937.5,18,-56,24,0,0,0,0,0
1569342941968.75,19,-56,24,0,0,0,0,0
1569342942000,20,-56,24,0,0,0,0,0
1569342942031.25,20,-56,24,0,0,0,0,0
1569342942062.5,19,-56,23,0,0,0,0,0
1569342942093.75,18,-56,24,0,0,0,0,0
1569342942125,18,-56,24,0,0,0,0,0
1569342942156.25,19,-56,24,0,0,0,0,0
1569342942187.5,20,-56,24,0,0,0,0,0
1569342942218.75,19,-56,24,0,0,0,0,0
1569342942250,19,-56,24,0,0,0,0,0
1569342942281.25,19,-56,24,0,0,0,0,0
1569342942312.5,18,-56,24,0,0,0,0,0
1569342942343.75,19,-56,24,0,0,0,0,0
1569342942375,18,-56,24,0,0,0,0,0
1569342942406.25,19,-56,24,0,0,0,0,0
1569342942437.5,19,-56,24,0,0,0,0,0
1569342942468.75,19,-56,24,0,0,0,0,0
1569342942500,19,-56,24,0,0,0,0,0
1569342942531.25,19,-56,24,0,0,0,0,0
1569342942562.5,19,-56,24,0,0,0,0,0
1569342942593.75,19,-56,24,0,0,0,0,0
1569342942625,19,-56,24,0,0,0,0,0
1569342942656.25,19,-56,24,0,0,0,0,0
1569342942687.5,19,-56,24,0,0,0,0,0
1569342942718.75,19,-56,24,0,0,0,0,0
1569342942750,19,-56,24,0,0,0,0,0
1569342942781.25,18,-56,25,0,0,0,0,0
1569342942812.5,19,-56,24,0,0,0,0,0
1569342942843.75,19,-56,24,0,0,0,0,0
1569342942875,19,-56,24,0,0,0,0,0
1569342942906.25,19,-56,24,0,0,0,0,0
1569342942937.5,19,-56,24,0,0,0,0,0
1569342942968.75,18,-56,25,0,0,0,0,0
1569342943000,19,-56,24,0,0,0,0,0
1569342943031.25,19,-56,24,0,0,0,0,0
1569342943062.5,19,-55,25,0,0,0,0,0
1569342943093.75,19,-56,24,0,0,0,0,0
1569342943125,19,-56,24,0,0,0,0,0
1569342943156.25,18,-56,24,0,0,0,0,0
1569342943187.5,18,-56,24,0,0,0,0,0
1569342943218.75,18,-56,24,0,0,0,0,0
1569342943250,19,-56,25,0,0,0,0,0
1569342943281.25,19,-56,24,0,0,0,0,0
1569342943312.5,19,-56,25,0,0,0,0,0
1569342943343.75,19,-56,24,0,0,0,0,0
1569342943375,18,-56,24,0,0,0,0,0
1569342943406.25,19,-56,24,0,0,0,0,0
1569342943437.5,19,-56,24,0,0,0,0,0
1569342943468.75,19,-56,24,0,0,0,0,0
1569342943500,19,-56,24,0,0,0,0,0
1569342943531.25,19,-56,25,0,0,0,0,0
1569342943562.5,20,-56,24,0,0,0,0,0
1569342943593.75,18,-56,24,0,0,0,0,0
1569342943625,19,-56,24,0,0,0,0,0
1569342943656.25,19,-56,25,0,0,0,0,0
1569342943687.5,19,-56,25,0,0,0,0,0
1569342943718.75,19,-56,24,0,0,0,0,0
1569342943750,19,-56,24,0,0,0,0,0
1569342943781.25,19,-55,24,0,0,0,0,0
1569342943812.5,19,-57,24,0,0,0,0,0
1569342943843.75,18,-56,25,0,0,0,0,0
1569342943875,18,-56,24,0,0,0,0,0
1569342943906.25,19,-56,24,0,0,0,0,0
1569342943937.5,19,-56,24,0,0,0,0,0
1569342943968.75,19,-56,24,0,0,0,0,0
1569342944000,18,-56,25,0,0,0,0,0
1569342944031.25,18,-56,24,0,0,0,0,0
1569342944062.5,19,-56,24,0,0,0,0,0
1569342944093.75,19,-56,24,0,0,0,0,0
1569342944125,19,-56,25,0,0,0,0,0
1569342944156.25,19,-56,24,0,0,0,0,0
1569342944187.5,18,-56,24,0,0,0,0,0
1569342944218.75,19,-56,25,0,0,0,0,0
1569342944250,19,-56,25,0,0,0,0,0
1569342944281.25,19,-56,24,0,0,0,0,0
1569342944312.5,19,-56,24,0,0,0,0,0
1569342944343.75,18,-56,24,0,0,0,0,0
1569342944375,18,-56,24,0,0,0,0,0
1569342944406.25,19,-56,25,0,0,0,0,0
1569342944437.5,18,-56,25,0,0,0,0,0
1569342944468.75,19,-56,25,0,0,0,0,0
1569342944500,19,-56,24,0,0,0,0,0
1569342944531.25,19,-56,24,0,0,0,0,0
1569342944562.5,18,-56,24,0,0,0,0,0
1569342944593.75,18,-56,25,0,0,0,0,0
1569342944625,18,-56,25,0,0,0,0,0
1569342944656.25,19,-56,24,0,0,0,0,0
1569342944687.5,18,-56,25,0,0,0,0,0
1569342944718.75,19,-56,24,0,0,0,0,0
1569342944750,19,-56,25,0,0,0,0,0
1569342944781.25,19,-56,24,0,0,0,0,0
1569342944812.5,19,-56,24,0,0,0,0,0
1569342944843.75,18,-56,25,0,0,0,0,0
1569342944875,19,-56,24,0,0,0,0,0
1569342944906.25,19,-56,24,0,0,0,0,0
1569342944937.5,18,-56,25,0,0,0,0,0
1569342944968.75,19,-56,24,0,0,0,0,0
1569342945000,19,-56,24,0,0,0,0,0
1569342945031.25,19,-56,24,0,0,0,0,0
1569342945062.5,19,-56,24,0,0,0,0,0
1569342945093.75,18,-56,24,0,0,0,0,0
1569342945125,19,-56,24,0,0,0,0,0
1569342945156.25,18,-56,24,0,0,0,0,0
1569342945187.5,19,-56,24,0,0,0,0,0
1569342945218.75,19,-56,24,0,0,0,0,0
1569342945250,19,-56,24,0,0,0,0,0
1569342945281.25,19,-56,24,0,0,0,0,0
1569342945312.5,19,-56,24,0,0,0,0,0
1569342945343.75,18,-56,24,0,0,0,0,0
1569342945375,19,-56,25,0,0,0,0,0
1569342945406.25,19,-56,24,0,0,0,0,0
1569342945437.5,18,-56,25,0,0,0,0,0
1569342945468.75,19,-56,25,0,0,0,0,0
1569342945500,19,-56,25,0,0,0,0,0
1569342945531.25,19,-56,24,0,0,0,0,0
1569342945562.5,19,-56,25,0,0,0,0,0
1569342945593.75,19,-56,24,0,0,0,0,0
1569342945625,18,-56,24,0,0,0,0,0
1569342945656.25,19,-56,24,0,0,0,0,0
1569342945687.5,19,-56,24,0,0,0,0,0
1569342945718.75,19,-56,24,0,0,0,0,0
1569342945750,18,-56,24,0,0,0,0,0
1569342945781.25,19,-56,24,0,0,0,0,0
1569342945812.5,18,-56,24,0,0,0,0,0
1569342945843.75,19,-56,24,0,0,0,0,0
1569342945875,19,-56,24,0,0,0,0,0
1569342945906.25,18,-56,25,0,0,0,0,0
1569342945937.5,19,-56,24,0,0,0,0,0
1569342945968.75,19,-56,24,0,0,0,0,0
1569342946000,19,-56,24,0,0,0,0,0
1569342946031.25,19,-56,24,0,0,0,0,0
1569342946062.5,19,-56,24,0,0,0,0,0
1569342946093.75,19,-56,24,0,0,0,0,0
1569342946125,19,-56,24,0,0,0,0,0
1569342946156.25,19,-56,24,0,0,0,0,0
1569342946187.5,19,-56,24,0,0,0,0,0
1569342946218.75,19,-56,24,0,0,0,0,0
1569342946250,19,-56,24,0,0,0,0,0
1569342946281.25,19,-56,24,0,0,0,0,0
1569342946312.5,18,-56,24,0,0,0,0,0
1569342946343.75,18,-56,24,0,0,0,0,0
1569342946375,19,-56,24,0,0,0,0,0
1569342946406.25,19,-56,24,0,0,0,0,0
1569342946437.5,19,-56,24,0,0,0,0,0
1569342946468.75,19,-56,24,0,0,0,0,0
1569342946500,19,-56,24,0,0,0,0,0
1569342946531.25,18,-56,24,0,0,0,0,0
1569342946562.5,18,-56,24,0,0,0,0,0
1569342946593.75,18,-56,24,0,0,0,0,0
1569342946625,19,-56,24,0,0,0,0,0
1569342946656.25,19,-56,24,0,0,0,0,0
1569342946687.5,19,-56,24,0,0,0,0,0
1569342946718.75,18,-56,24,0,0,0,0,0
1569342946750,19,-56,24,0,0,0,0,0
1569342946781.25,19,-56,24,0,0,0,0,0
1569342946812.5,19,-56,24,0,0,0,0,0
1569342946843.75,19,-56,24,0,0,0,0,0
1569342946875,19,-56,24,0,0,0,0,0
1569342946906.25,19,-55,24,0,0,0,0,0
1569342946937.5,19,-56,24,0,0,0,0,0
1569342946968.75,19,-56,25,0,0,0,0,0
1569342947000,19,-56,24,0,0,0,0,0
1569342947031.25,19,-56,24,0,0,0,0,0
1569342947062.5,19,-56,25,0,0,0,0,0
1569342947093.75,19,-56,24,0,0,0,0,0
1569342947125,18,-56,24,0,0,0,0,0
1569342947156.25,19,-56,24,0,0,0,0,0
1569342947187.5,19,-56,24,0,0,0,0,0
1569342947218.75,19,-56,25,0,0,0,0,0
1569342947250,19,-56,24,0,0,0,0,0
1569342947281.25,19,-56,25,0,0,0,0,0
1569342947312.5,18,-56,23,0,0,0,0,0
1569342947343.75,19,-56,25,0,0,0,0,0
1569342947375,19,-56,25,0,0,0,0,0
1569342947406.25,19,-56,26,0,0,0,0,0
1569342947437.5,18,-54,23,0,0,0,0,0
1569342947468.75,19,-56,25,0,0,0,0,0
1569342947500,19,-56,25,0,0,0,0,0
1569342947531.25,19,-56,24,0,0,0,0,0
1569342947562.5,19,-56,25,0,0,0,0,0
1569342947593.75,19,-56,25,0,0,0,0,0
1569342947625,19,-56,25,0,0,0,0,0
1569342947656.25,19,-56,24,0,0,0,0,0
1569342947687.5,19,-56,24,0,0,0,0,0
1569342947718.75,19,-56,25,0,0,0,0,0
1569342947750,19,-55,25,0,0,0,0,0
1569342947781.25,19,-56,25,0,0,0,0,0
1569342947812.5,19,-56,25,0,0,0,0,0
1569342947843.75,19,-56,24,0,0,0,0,0
1569342947875,18,-56,25,0,0,0,0,0
1569342947906.25,19,-56,24,0,0,0,0,0
1569342947937.5,19,-56,25,0,0,0,0,0
1569342947968.75,18,-56,25,0,0,0,0,0
1569342948000,19,-56,24,0,0,0,0,0
1569342948031.25,19,-56,24,0,0,0,0,0
1569342948062.5,19,-56,24,0,0,0,0,0
1569342948093.75,19,-56,24,0,0,0,0,0
1569342948125,18,-56,24,0,0,0,0,0
1569342948156.25,19,-56,24,0,0,0,0,0
1569342948187.5,19,-56,24,0,0,0,0,0
1569342948218.75,18,-56,24,0,0,0,0,0
1569342948250,19,-56,24,0,0,0,0,0
1569342948281.25,18,-56,25,0,0,0,0,0
1569342948312.5,19,-56,24,0,0,0,0,0
1569342948343.75,19,-56,24,0,0,0,0,0
1569342948375,19,-56,24,0,0,0,0,0
1569342948406.25,19,-56,24,0,0,0,0,0
1569342948437.5,18,-56,25,0,0,0,0,0
1569342948468.75,19,-56,24,0,0,0,0,0
1569342948500,19,-56,24,0,0,0,0,0
1569342948531.25,18,-56,24,0,0,0,0,0
1569342948562.5,19,-56,24,0,0,0,0,0
1569342948593.75,19,-56,24,0,0,0,0,0
1569342948625,19,-56,24,0,0,0,0,0
1569342948656.25,19,-56,24,0,0,0,0,0
1569342948687.5,19,-56,24,0,0,0,0,0
1569342948718.75,19,-56,24,0,0,0,0,0
1569342948750,19,-56,24,0,0,0,0,0
1569342948781.25,19,-56,24,0,0,0,0,0
1569342948812.5,19,-56,24,0,0,0,0,0
1569342948843.75,19,-56,24,0,0,0,0,0
1569342948875,19,-56,24,0,0,0,0,0
1569342948906.25,19,-56,24,0,0,0,0,0
1569342948937.5,19,-56,24,0,0,0,0,0
1569342948968.75,19,-56,24,0,0,0,0,0
1569342949000,19,-56,24,0,0,0,0,0
1569342949031.25,18,-56,24,0,0,0,0,0
1569342949062.5,19,-56,24,0,0,0,0,0
1569342949093.75,18,-56,24,0,0,0,0,0
1569342949125,19,-56,24,0,0,0,0,0
1569342949156.25,19,-56,24,0,0,0,0,0
1569342949187.5,19,-56,25,0,0,0,0,0
1569342949218.75,19,-56,24,0,0,0,0,0
1569342949250,19,-56,24,0,0,0,0,0
1569342949281.25,18,-56,24,0,0,0,0,0
1569342949312.5,19,-56,24,0,0,0,0,0
1569342949343.75,19,-56,24,0,0,0,0,0
1569342949375,19,-56,25,0,0,0,0,0
1569342949406.25,19,-56,24,0,0,0,0,0
1569342949437.5,19,-56,25,0,0,0,0,0
1569342949468.75,19,-56,24,0,0,0,0,0
1569342949500,18,-56,24,0,0,0,0,0
1569342949531.25,19,-56,24,0,0,0,0,0
1569342949562.5,19,-56,24,0,0,0,0,0
1569342949593.75,19,-56,25,0,0,0,0,0
1569342949625,19,-56,24,0,0,0,0,0
1569342949656.25,19,-56,24,0,0,0,0,0
1569342949687.5,19,-56,25,0,0,0,0,0
1569342949718.75,19,-56,25,0,0,0,0,0
1569342949750,19,-56,25,0,0,0,0,0
1569342949781.25,19,-56,24,0,0,0,0,0
1569342949812.5,19,-56,24,0,0,0,0,0
1569342949843.75,18,-56,25,0,0,0,0,0
1569342949875,19,-56,24,0,0,0,0,0
1569342949906.25,19,-56,25,0,0,0,0,0
1569342949937.5,19,-56,24,0,0,0,0,0
1569342949968.75,19,-55,25,0,0,0,0,0
1569342950000,18,-56,25,0,0,0,0,0
1569342950031.25,19,-56,24,0,0,0,0,0
1569342950062.5,19,-56,25,0,0,0,0,0
1569342950093.75,18,-56,25,0,0,0,0,0
1569342950125,19,-56,25,0,0,0,0,0
1569342950156.25,19,-56,25,0,0,0,0,0
1569342950187.5,19,-56,24,0,0,0,0,0
1569342950218.75,19,-56,24,0,0,0,0,0
1569342950250,18,-56,25,0,0,0,0,0
1569342950281.25,19,-56,24,0,0,0,0,0
1569342950312.5,19,-56,24,0,0,0,0,0
1569342950343.75,18,-56,25,0,0,0,0,0
1569342950375,19,-56,24,0,0,0,0,0
1569342950406.25,18,-55,25,0,0,0,0,0
1569342950437.5,19,-56,24,0,0,0,0,0
1569342950468.75,19,-56,24,0,0,0,0,0
1569342950500,18,-56,24,0,0,0,0,0
1569342950531.25,19,-56,24,0,0,0,0,0
1569342950562.5,18,-56,24,0,0,0,0,0
1569342950593.75,19,-56,24,0,0,0,0,0
1569342950625,19,-56,24,0,0,0,0,0
1569342950656.25,18,-56,24,0,0,0,0,0
1569342950687.5,19,-56,24,0,0,0,0,0
1569342950718.75,19,-56,24,0,0,0,0,0
1569342950750,19,-56,24,0,0,0,0,0
1569342950781.25,19,-56,24,0,0,0,0,0
1569342950812.5,19,-56,24,0,0,0,0,0
1569342950843.75,19,-56,24,0,0,0,0,0
1569342950875,19,-56,24,0,0,0,0,0
1569342950906.25,19,-56,24,0,0,0,0,0
1569342950937.5,19,-56,24,0,0,0,0,0
1569342950968.75,19,-56,24,0,0,0,0,0
1569342951000,19,-56,24,0,0,0,0,0
1569342951031.25,19,-56,24,0,0,0,0,0
1569342951062.5,18,-56,24,0,0,0,0,0
1569342951093.75,19,-56,24,0,0,0,0,0
1569342951125,19,-56,24,0,0,0,0,0
1569342951156.25,19,-56,24,0,0,0,0,0
1569342951187.5,19,-56,24,0,0,0,0,0
1569342951218.75,19,-56,24,0,0,0,0,0
1569342951250,19,-56,23,0,0,0,0,0
1569342951281.25,19,-56,24,0,0,0,0,0
1569342951312.5,19,-56,24,0,0,0,0,0
1569342951343.75,19,-56,24,0,0,0,0,0
1569342951375,19,-56,23,0,0,0,0,0
1569342951406.25,19,-56,24,0,0,0,0,0
1569342951437.5,19,-56,23,0,0,0,0,0
1569342951468.75,19,-56,24,0,0,0,0,0
1569342951500,19,-56,24,0,0,0,0,0
1569342951531.25,19,-56,24,0,0,0,0,0
1569342951562.5,19,-56,24,0,0,0,0,0
1569342951593.75,19,-56,24,0,0,0,0,0
1569342951625,19,-56,24,0,0,0,0,0
1569342951656.25,19,-56,24,0,0,0,0,0
1569342951687.5,19,-56,24,0,0,0,0,0
1569342951718.75,19,-56,24,0,0,0,0,0
1569342951750,19,-56,24,0,0,0,0,0
1569342951781.25,19,-56,24,0,0,0,0,0
1569342951812.5,19,-56,24,0,0,0,0,0
1569342951843.75,19,-56,24,0,0,0,0,0
1569342951875,19,-56,24,0,0,0,0,0
1569342951906.25,20,-55,24,0,0,0,0,0
1569342951937.5,20,-56,24,0,0,0,0,0
1569342951968.75,19,-56,24,0,0,0,0,0
1569342952000,20,-56,24,0,0,0,0,0
1569342952031.25,20,-56,24,0,0,0,0,0
1569342952062.5,19,-55,25,0,0,0,0,0
1569342952093.75,19,-55,25,0,0,0,0,0
1569342952125,20,-56,24,0,0,0,0,0
1569342952156.25,20,-55,24,0,0,0,0,0
1569342952187.5,21,-56,26,0,0,0,0,0
1569342952218.75,19,-55,26,0,0,0,0,0
1569342952250,18,-55,25,0,0,0,0,0
1569342952281.25,20,-55,25,0,0,0,0,0
1569342952312.5,19,-55,25,0,0,0,0,0
1569342952343.75,18,-55,25,0,0,0,0,0
1569342952375,19,-56,24,0,0,0,0,0
1569342952406.25,20,-56,24,0,0,0,0,0
1569342952437.5,20,-56,24,0,0,0,0,0
1569342952468.75,19,-56,24,0,0,0,0,0
1569342952500,19,-56,24,0,0,0,0,0
1569342952531.25,18,-56,24,0,0,0,0,0
1569342952562.5,18,-56,24,0,0,0,0,0
1569342952593.75,19,-56,24,0,0,0,0,0
1569342952625,19,-56,24,0,0,0,0,0
1569342952656.25,19,-56,24,0,0,0,0,0
1569342952687.5,18,-56,24,0,0,0,0,0
1569342952718.75,18,-56,24,0,0,0,0,0
1569342952750,19,-56,24,0,0,0,0,0
1569342952781.25,19,-56,24,0,0,0,0,0
1569342952812.5,18,-56,24,0,0,0,0,0
1569342952843.75,19,-56,24,0,0,0,0,0
1569342952875,19,-56,24,0,0,0,0,0
1569342952906.25,19,-56,24,0,0,0,0,0
1569342952937.5,19,-56,24,0,0,0,0,0
1569342952968.75,19,-56,24,0,0,0,0,0
1569342953000,18,-56,24,0,0,0,0,0
1569342953031.25,19,-56,24,0,0,0,0,0
1569342953062.5,19,-56,24,0,0,0,0,0
1569342953093.75,19,-56,24,0,0,0,0,0
1569342953125,19,-56,24,0,0,0,0,0
1569342953156.25,19,-56,23,0,0,0,0,0
1569342953187.5,19,-56,23,0,0,0,0,0
1569342953218.75,19,-56,23,0,0,0,0,0
1569342953250,19,-56,23,0,0,0,0,0
1569342953281.25,19,-56,23,0,0,0,0,0
1569342953312.5,19,-56,23,0,0,0,0,0
1569342953343.75,19,-56,23,0,0,0,0,0
1569342953375,19,-56,23,0,0,0,0,0
1569342953406.25,19,-56,23,0,0,0,0,0
1569342953437.5,19,-56,23,0,0,0,0,0
1569342953468.75,19,-56,23,0,0,0,0,0
1569342953500,19,-56,23,0,0,0,0,0
1569342953531.25,19,-56,23,0,0,0,0,0
1569342953562.5,19,-56,23,0,0,0,0,0
1569342953593.75,19,-56,23,0,0,0,0,0
1569342953625,19,-56,23,0,0,0,0,0
1569342953656.25,20,-56,23,0,0,0,0,0
1569342953687.5,19,-56,23,0,0,0,0,0
1569342953718.75,19,-56,23,0,0,0,0,0
1569342953750,19,-56,23,0,0,0,0,0
1569342953781.25,19,-56,23,0,0,0,0,0
1569342953812.5,19,-56,23,0,0,0,0,0
1569342953843.75,19,-56,23,0,0,0,0,0
1569342953875,19,-56,23,0,0,0,0,0
1569342953906.25,19,-56,23,0,0,0,0,0
1569342953937.5,19,-56,23,0,0,0,0,0
1569342953968.75,19,-57,22,0,0,0,0,0
1569342954000,19,-57,23,0,0,0,0,0
1569342954031.25,19,-57,22,0,0,0,0,0
1569342954062.5,19,-57,22,0,0,0,0,0
1569342954093.75,20,-56,21,0,0,0,0,0
1569342954125,20,-56,21,0,0,0,0,0
1569342954156.25,17,-57,24,0,0,0,0,0
1569342954187.5,17,-55,25,0,0,0,0,0
1569342954218.75,22,-57,23,0,0,0,0,0
1569342954250,16,-55,24,0,0,0,0,0
1569342954281.25,20,-57,22,0,0,0,0,0
1569342954312.5,21,-57,21,0,0,0,0,0
1569342954343.75,19,-57,22,0,0,0,0,0
1569342954375,19,-56,23,0,0,0,0,0
1569342954406.25,19,-56,23,0,0,0,0,0
1569342954437.5,19,-56,24,0,0,0,0,0
1569342954468.75,19,-56,24,0,0,0,0,0
1569342954500,19,-56,24,0,0,0,0,0
1569342954531.25,19,-56,24,0,0,0,0,0
1569342954562.5,20,-56,23,0,0,0,0,0
1569342954593.75,18,-56,24,0,0,0,0,0
1569342954625,21,-56,23,0,0,0,0,0
1569342954656.25,19,-56,23,0,0,0,0,0
1569342954687.5,19,-55,24,0,0,0,0,0
1569342954718.75,20,-56,24,0,0,0,0,0
1569342954750,18,-55,25,0,0,0,0,0
1569342954781.25,20,-56,24,0,0,0,0,0
1569342954812.5,20,-56,24,0,0,0,0,0
1569342954843.75,18,-56,24,0,0,0,0,0
1569342954875,18,-56,24,0,0,0,0,0
1569342954906.25,19,-56,23,0,0,0,0,0
1569342954937.5,19,-56,24,0,0,0,0,0
1569342954968.75,20,-55,24,0,0,0,0,0
1569342955000,19,-56,23,0,0,0,0,0
1569342955031.25,20,-56,24,0,0,0,0,0
1569342955062.5,18,-55,24,0,0,0,0,0
1569342955093.75,19,-56,25,0,0,0,0,0
1569342955125,20,-55,24,0,0,0,0,0
1569342955156.25,20,-56,24,0,0,0,0,0
1569342955187.5,20,-56,24,0,0,0,0,0
1569342955218.75,19,-56,24,0,0,0,0,0
1569342955250,19,-55,24,0,0,0,0,0
1569342955281.25,20,-53,25,0,0,0,0,0
1569342955312.5,22,-58,20,0,0,0,0,0
1569342955343.75,18,-60,23,0,0,0,0,0
1569342955375,16,-56,25,0,0,0,0,0
1569342955406.25,20,-56,23,0,0,0,0,0
1569342955437.5,20,-55,24,0,0,0,0,0
1569342955468.75,19,-55,23,0,0,0,0,0
1569342955500,20,-57,21,0,0,0,0,0
1569342955531.25,21,-57,21,0,0,0,0,0
1569342955562.5,20,-56,22,0,0,0,0,0
1569342955593.75,20,-56,23,0,0,0,0,0
1569342955625,21,-56,23,0,0,0,0,0
1569342955656.25,20,-56,23,0,0,0,0,0
1569342955687.5,20,-56,22,0,0,0,0,0
1569342955718.75,20,-56,22,0,0,0,0,0
1569342955750,19,-56,22,0,0,0,0,0
1569342955781.25,20,-56,23,0,0,0,0,0
1569342955812.5,20,-56,22,0,0,0,0,0
1569342955843.75,20,-56,23,0,0,0,0,0
1569342955875,19,-56,23,0,0,0,0,0
1569342955906.25,19,-56,22,0,0,0,0,0
1569342955937.5,20,-56,22,0,0,0,0,0
1569342955968.75,20,-56,23,0,0,0,0,0
1569342956000,19,-56,23,0,0,0,0,0
1569342956031.25,20,-56,22,0,0,0,0,0
1569342956062.5,20,-56,23,0,0,0,0,0
1569342956093.75,20,-56,22,0,0,0,0,0
1569342956125,20,-56,22,0,0,0,0,0
1569342956156.25,20,-56,23,0,0,0,0,0
1569342956187.5,20,-56,22,0,0,0,0,0
1569342956218.75,20,-56,23,0,0,0,0,0
1569342956250,20,-56,22,0,0,0,0,0
1569342956281.25,20,-56,23,0,0,0,0,0
1569342956312.5,20,-56,23,0,0,0,0,0
1569342956343.75,20,-56,23,0,0,0,0,0
1569342956375,20,-56,23,0,0,0,0,0
1569342956406.25,20,-56,23,0,0,0,0,0
1569342956437.5,20,-56,23,0,0,0,0,0
1569342956468.75,20,-56,23,0,0,0,0,0
1569342956500,20,-56,23,0,0,0,0,0
1569342956531.25,20,-56,23,0,0,0,0,0
1569342956562.5,20,-56,23,0,0,0,0,0
1569342956593.75,20,-56,23,0,0,0,0,0
1569342956625,19,-56,23,0,0,0,0,0
1569342956656.25,20,-56,22,0,0,0,0,0
1569342956687.5,20,-56,23,0,0,0,0,0
1569342956718.75,20,-56,23,0,0,0,0,0
1569342956750,20,-56,22,0,0,0,0,0
1569342956781.25,20,-56,23,0,0,0,0,0
1569342956812.5,20,-56,23,0,0,0,0,0
1569342956843.75,20,-56,23,0,0,0,0,0
1569342956875,20,-56,23,0,0,0,0,0
1569342956906.25,20,-56,23,0,0,0,0,0
1569342956937.5,20,-56,23,0,0,0,0,0
1569342956968.75,19,-56,23,0,0,0,0,0
1569342957000,20,-56,23,0,0,0,0,0
1569342957031.25,20,-56,23,0,0,0,0,0
1569342957062.5,20,-56,22,0,0,0,0,0
1569342957093.75,20,-56,23,0,0,0,0,0
1569342957125,20,-56,23,0,0,0,0,0
1569342957156.25,20,-56,23,0,0,0,0,0
1569342957187.5,20,-56,23,0,0,0,0,0
1569342957218.75,20,-56,23,0,0,0,0,0
1569342957250,20,-56,23,0,0,0,0,0
1569342957281.25,20,-56,23,0,0,0,0,0
1569342957312.5,20,-56,23,0,0,0,0,0
1569342957343.75,20,-56,22,0,0,0,0,0
1569342957375,20,-56,23,0,0,0,0,0
1569342957406.25,20,-56,23,0,0,0,0,0
1569342957437.5,20,-56,23,0,0,0,0,0
1569342957468.75,20,-56,22,0,0,0,0,0
1569342957500,20,-56,23,0,0,0,0,0
1569342957531.25,20,-56,23,0,0,0,0,0
1569342957562.5,20,-56,23,0,0,0,0,0
1569342957593.75,20,-56,22,0,0,0,0,0
1569342957625,20,-56,23,0,0,0,0,0
1569342957656.25,20,-56,23,0,0,0,0,0
1569342957687.5,20,-56,22,0,0,0,0,0
1569342957718.75,20,-56,23,0,0,0,0,0
1569342957750,20,-56,22,0,0,0,0,0
1569342957781.25,20,-56,23,0,0,0,0,0
1569342957812.5,20,-56,23,0,0,0,0,0
1569342957843.75,20,-56,23,0,0,0,0,0
1569342957875,20,-56,23,0,0,0,0,0
1569342957906.25,20,-56,23,0,0,0,0,0
1569342957937.5,20,-56,23,0,0,0,0,0
1569342957968.75,20,-56,23,0,0,0,0,0
1569342958000,20,-56,23,0,0,0,0,0
1569342958031.25,20,-56,23,0,0,0,0,0
1569342958062.5,20,-56,23,0,0,0,0,0
1569342958093.75,20,-56,23,0,0,0,0,0
1569342958125,20,-56,23,0,0,0,0,0
1569342958156.25,20,-56,23,0,0,0,0,0
1569342958187.5,20,-56,23,0,0,0,0,0
1569342958218.75,20,-56,23,0,0,0,0,0
1569342958250,20,-56,23,0,0,0,0,0
1569342958281.25,20,-56,23,0,0,0,0,0
1569342958312.5,20,-56,23,0,0,0,0,0
1569342958343.75,20,-56,23,0,0,0,0,0
1569342958375,20,-56,23,0,0,0,0,0
1569342958406.25,20,-56,23,0,0,0,0,0
1569342958437.5,20,-56,23,0,0,0,0,0
1569342958468.75,20,-56,23,0,0,0,0,0
1569342958500,19,-56,23,0,0,0,0,0
1569342958531.25,20,-56,23,0,0,0,0,0
1569342958562.5,20,-56,23,0,0,0,0,0
1569342958593.75,20,-56,23,0,0,0,0,0
1569342958625,20,-56,23,0,0,0,0,0
1569342958656.25,20,-56,23,0,0,0,0,0
1569342958687.5,20,-56,23,0,0,0,0,0
1569342958718.75,20,-56,23,0,0,0,0,0
1569342958750,20,-56,23,0,0,0,0,0
1569342958781.25,20,-56,23,0,0,0,0,0
1569342958812.5,20,-56,23,0,0,0,0,0
1569342958843.75,20,-56,23,0,0,0,0,0
1569342958875,20,-56,23,0,0,0,0,0
1569342958906.25,20,-56,23,0,0,0,0,0
1569342958937.5,20,-56,23,0,0,0,0,0
1569342958968.75,20,-56,23,0,0,0,0,0
1569342959000,20,-56,23,0,0,0,0,0
1569342959031.25,20,-56,23,0,0,0,0,0
1569342959062.5,20,-56,23,0,0,0,0,0
1569342959093.75,20,-56,23,0,0,0,0,0
1569342959125,20,-56,23,0,0,0,0,0
1569342959156.25,19,-56,23,0,0,0,0,0
1569342959187.5,20,-56,23,0,0,0,0,0
1569342959218.75,20,-56,23,0,0,0,0,0
1569342959250,20,-56,23,0,0,0,0,0
1569342959281.25,20,-56,23,0,0,0,0,0
1569342959312.5,20,-56,23,0,0,0,0,0
1569342959343.75,20,-56,23,0,0,0,0,0
1569342959375,20,-56,23,0,0,0,0,0
1569342959406.25,20,-56,23,0,0,0,0,0
1569342959437.5,20,-56,23,0,0,0,0,0
1569342959468.75,20,-56,23,0,0,0,0,0
1569342959500,20,-56,23,0,0,0,0,0
1569342959531.25,20,-56,23,0,0,0,0,0
1569342959562.5,20,-56,23,0,0,0,0,0
1569342959593.75,20,-56,23,0,0,0,0,0
1569342959625,20,-56,23,0,0,0,0,0
1569342959656.25,20,-56,23,0,0,0,0,0
1569342959687.5,20,-56,23,0,0,0,0,0
1569342959718.75,20,-56,23,0,0,0,0,0
1569342959750,19,-56,23,0,0,0,0,0
1569342959781.25,19,-56,23,0,0,0,0,0
1569342959812.5,20,-56,23,0,0,0,0,0
1569342959843.75,20,-56,23,0,0,0,0,0
1569342959875,20,-56,23,0,0,0,0,0
1569342959906.25,20,-56,23,0,0,0,0,0
1569342959937.5,20,-56,23,0,0,0,0,0
1569342959968.75,20,-56,23,0,0,0,0,0
1569342960000,20,-56,23,0,0,0,0,0
1569342960031.25,19,-56,23,0,0,0,0,0
1569342960062.5,20,-56,23,0,0,0,0,0
1569342960093.75,20,-56,23,0,0,0,0,0
1569342960125,20,-56,23,0,0,0,0,0
1569342960156.25,20,-56,23,0,0,0,0,0
1569342960187.5,20,-56,23,0,0,0,0,0
1569342960218.75,20,-56,23,0,0,0,0,0
1569342960250,19,-56,23,0,0,0,0,0
1569342960281.25,20,-56,23,0,0,0,0,0
1569342960312.5,20,-56,23,0,0,0,0,0
1569342960343.75,20,-56,23,0,0,0,0,0
1569342960375,20,-56,23,0,0,0,0,0
1569342960406.25,19,-56,23,0,0,0,0,0
1569342960437.5,20,-56,23,0,0,0,0,0
1569342960468.75,20,-56,23,0,0,0,0,0
1569342960500,20,-56,23,0,0,0,0,0
1569342960531.25,20,-56,23,0,0,0,0,0
1569342960562.5,20,-56,23,0,0,0,0,0
1569342960593.75,20,-56,23,0,0,0,0,0
1569342960625,20,-56,23,0,0,0,0,0
1569342960656.25,20,-56,23,0,0,0,0,0
1569342960687.5,20,-56,23,0,0,0,0,0
1569342960718.75,20,-56,23,0,0,0,0,0
1569342960750,20,-56,23,0,0,0,0,0
1569342960781.25,20,-56,23,0,0,0,0,0
1569342960812.5,20,-56,23,0,0,0,0,0
1569342960843.75,20,-56,23,0,0,0,0,0
1569342960875,20,-56,23,0,0,0,0,0
1569342960906.25,20,-56,23,0,0,0,0,0
1569342960937.5,20,-56,23,0,0,0,0,0
1569342960968.75,20,-56,23,0,0,0,0,0
1569342961000,20,-56,23,0,0,0,0,0
1569342961031.25,20,-56,23,0,0,0,0,0
1569342961062.5,20,-56,23,0,0,0,0,0
1569342961093.75,20,-56,23,0,0,0,0,0
1569342961125,20,-56,23,0,0,0,0,0
1569342961156.25,20,-56,23,0,0,0,0,0
1569342961187.5,20,-56,23,0,0,0,0,0
1569342961218.75,20,-56,23,0,0,0,0,0
1569342961250,20,-56,23,0,0,0,0,0
1569342961281.25,20,-56,23,0,0,0,0,0
1569342961312.5,20,-56,23,0,0,0,0,0
1569342961343.75,20,-56,23,0,0,0,0,0
1569342961375,20,-56,23,0,0,0,0,0
1569342961406.25,20,-56,23,0,0,0,0,0
1569342961437.5,20,-56,23,0,0,0,0,0
1569342961468.75,20,-56,23,0,0,0,0,0
1569342961500,20,-56,23,0,0,0,0,0
1569342961531.25,20,-56,23,0,0,0,0,0
1569342961562.5,20,-56,23,0,0,0,0,0
1569342961593.75,19,-56,23,0,0,0,0,0
1569342961625,21,-56,23,0,0,0,0,0
1569342961656.25,21,-56,23,0,0,0,0,0
1569342961687.5,19,-56,23,0,0,0,0,0
1569342961718.75,20,-56,23,0,0,0,0,0
1569342961750,20,-56,23,0,0,0,0,0
1569342961781.25,20,-56,23,0,0,0,0,0
1569342961812.5,20,-56,23,0,0,0,0,0
1569342961843.75,20,-56,23,0,0,0,0,0
1569342961875,20,-56,23,0,0,0,0,0
1569342961906.25,20,-56,23,0,0,0,0,0
1569342961937.5,20,-56,23,0,0,0,0,0
1569342961968.75,20,-56,23,0,0,0,0,0
1569342962000,20,-56,23,0,0,0,0,0
1569342962031.25,20,-56,23,0,0,0,0,0
1569342962062.5,20,-56,23,0,0,0,0,0
1569342962093.75,20,-56,23,0,0,0,0,0
1569342962125,20,-56,23,0,0,0,0,0
1569342962156.25,20,-56,23,0,0,0,0,0
1569342962187.5,20,-56,23,0,0,0,0,0
1569342962218.75,20,-56,23,0,0,0,0,0
1569342962250,20,-56,23,0,0,0,0,0
1569342962281.25,20,-56,24,0,0,0,0,0
1569342962312.5,20,-56,24,0,0,0,0,0
1569342962343.75,20,-56,23,0,0,0,0,0
1569342962375,20,-56,23,0,0,0,0,0
1569342962406.25,20,-56,23,0,0,0,0,0
1569342962437.5,20,-55,24,0,0,0,0,0
1569342962468.75,20,-55,24,0,0,0,0,0
1569342962500,20,-56,23,0,0,0,0,0
1569342962531.25,20,-56,24,0,0,0,0,0
1569342962562.5,20,-55,24,0,0,0,0,0
1569342962593.75,20,-56,23,0,0,0,0,0
1569342962625,20,-56,23,0,0,0,0,0
1569342962656.25,20,-56,23,0,0,0,0,0
1569342962687.5,20,-56,22,0,0,0,0,0
1569342962718.75,20,-56,22,0,0,0,0,0
1569342962750,20,-56,22,0,0,0,0,0
1569342962781.25,19,-56,22,0,0,0,0,0
1569342962812.5,20,-57,22,0,0,0,0,0
1569342962843.75,20,-56,22,0,0,0,0,0
1569342962875,20,-56,22,0,0,0,0,0
1569342962906.25,21,-56,22,0,0,0,0,0
1569342962937.5,20,-56,22,0,0,0,0,0
1569342962968.75,20,-56,22,0,0,0,0,0
1569342963000,20,-56,22,0,0,0,0,0
1569342963031.25,21,-56,22,0,0,0,0,0
1569342963062.5,20,-56,22,0,0,0,0,0
1569342963093.75,20,-56,23,0,0,0,0,0
1569342963125,20,-56,22,0,0,0,0,0
1569342963156.25,21,-56,22,0,0,0,0,0
1569342963187.5,20,-56,22,0,0,0,0,0
1569342963218.75,20,-56,22,0,0,0,0,0
1569342963250,20,-56,22,0,0,0,0,0
1569342963281.25,20,-56,22,0,0,0,0,0
1569342963312.5,20,-56,22,0,0,0,0,0
1569342963343.75,20,-56,22,0,0,0,0,0
1569342963375,20,-56,22,0,0,0,0,0
1569342963406.25,20,-56,23,0,0,0,0,0
1569342963437.5,20,-56,23,0,0,0,0,0
1569342963468.75,20,-56,23,0,0,0,0,0
1569342963500,20,-56,22,0,0,0,0,0
1569342963531.25,20,-56,22,0,0,0,0,0
1569342963562.5,20,-56,23,0,0,0,0,0
1569342963593.75,20,-56,23,0,0,0,0,0
1569342963625,20,-56,23,0,0,0,0,0
1569342963656.25,20,-56,23,0,0,0,0,0
1569342963687.5,20,-56,22,0,0,0,0,0
1569342963718.75,20,-56,22,0,0,0,0,0
1569342963750,20,-56,23,0,0,0,0,0
1569342963781.25,20,-56,23,0,0,0,0,0
1569342963812.5,20,-56,23,0,0,0,0,0
1569342963843.75,20,-56,23,0,0,0,0,0
1569342963875,20,-56,23,0,0,0,0,0
1569342963906.25,19,-56,23,0,0,0,0,0
1569342963937.5,20,-56,22,0,0,0,0,0
1569342963968.75,20,-56,23,0,0,0,0,0
1569342964000,19,-56,23,0,0,0,0,0
1569342964031.25,20,-56,23,0,0,0,0,0
1569342964062.5,20,-56,22,0,0,0,0,0
1569342964093.75,20,-56,23,0,0,0,0,0
1569342964125,20,-56,23,0,0,0,0,0
1569342964156.25,20,-56,23,0,0,0,0,0
1569342964187.5,20,-56,23,0,0,0,0,0
1569342964218.75,20,-56,23,0,0,0,0,0
1569342964250,20,-56,23,0,0,0,0,0
1569342964281.25,20,-56,23,0,0,0,0,0
1569342964312.5,20,-56,23,0,0,0,0,0
1569342964343.75,20,-56,23,0,0,0,0,0
1569342964375,20,-56,23,0,0,0,0,0
1569342964406.25,20,-56,23,0,0,0,0,0
1569342964437.5,20,-56,23,0,0,0,0,0
1569342964468.75,20,-56,23,0,0,0,0,0
1569342964500,19,-56,23,0,0,0,0,0
1569342964531.25,20,-56,23,0,0,0,0,0
1569342964562.5,19,-56,23,0,0,0,0,0
1569342964593.75,20,-55,23,0,0,0,0,0
1569342964625,19,-54,23,0,0,0,0,0
1569342964656.25,20,-57,25,0,0,0,0,0
1569342964687.5,23,-61,23,0,0,0,0,0
1569342964718.75,19,-57,22,0,0,0,0,0
1569342964750,19,-56,22,0,0,0,0,0
1569342964781.25,21,-57,22,0,0,0,0,0
1569342964812.5,20,-55,23,0,0,0,0,0
1569342964843.75,19,-55,24,0,0,0,0,0
1569342964875,20,-56,23,0,0,0,0,0
1569342964906.25,20,-57,22,0,0,0,0,0
1569342964937.5,19,-56,23,0,0,0,0,0
1569342964968.75,18,-57,23,0,0,0,0,0
1569342965000,19,-55,23,0,0,0,0,0
1569342965031.25,21,-56,23,0,0,0,0,0
1569342965062.5,20,-57,23,0,0,0,0,0
1569342965093.75,18,-56,24,0,0,0,0,0
1569342965125,20,-56,23,0,0,0,0,0
1569342965156.25,17,-55,24,0,0,0,0,0
1569342965187.5,21,-56,23,0,0,0,0,0
1569342965218.75,21,-56,23,0,0,0,0,0
1569342965250,19,-56,24,0,0,0,0,0
1569342965281.25,20,-56,23,0,0,0,0,0
1569342965312.5,19,-56,24,0,0,0,0,0
1569342965343.75,20,-56,24,0,0,0,0,0
1569342965375,20,-56,23,0,0,0,0,0
1569342965406.25,20,-56,23,0,0,0,0,0
1569342965437.5,20,-56,24,0,0,0,0,0
1569342965468.75,20,-55,24,0,0,0,0,0
1569342965500,19,-56,24,0,0,0,0,0
1569342965531.25,20,-56,24,0,0,0,0,0
1569342965562.5,20,-56,24,0,0,0,0,0
1569342965593.75,20,-56,24,0,0,0,0,0
1569342965625,19,-56,24,0,0,0,0,0
1569342965656.25,20,-56,23,0,0,0,0,0
1569342965687.5,20,-56,23,0,0,0,0,0
1569342965718.75,20,-56,24,0,0,0,0,0
1569342965750,19,-56,23,0,0,0,0,0
1569342965781.25,19,-56,23,0,0,0,0,0
1569342965812.5,20,-56,23,0,0,0,0,0
1569342965843.75,20,-56,24,0,0,0,0,0
1569342965875,20,-56,23,0,0,0,0,0
1569342965906.25,20,-56,23,0,0,0,0,0
1569342965937.5,20,-56,23,0,0,0,0,0
1569342965968.75,19,-56,23,0,0,0,0,0
1569342966000,20,-56,23,0,0,0,0,0
1569342966031.25,20,-56,23,0,0,0,0,0
1569342966062.5,19,-56,23,0,0,0,0,0
1569342966093.75,20,-56,23,0,0,0,0,0
1569342966125,20,-56,24,0,0,0,0,0
1569342966156.25,20,-56,23,0,0,0,0,0
1569342966187.5,19,-56,23,0,0,0,0,0
1569342966218.75,19,-56,23,0,0,0,0,0
1569342966250,20,-56,23,0,0,0,0,0
1569342966281.25,19,-56,23,0,0,0,0,0
1569342966312.5,19,-56,23,0,0,0,0,0
1569342966343.75,19,-56,23,0,0,0,0,0
1569342966375,19,-56,23,0,0,0,0,0
1569342966406.25,20,-56,23,0,0,0,0,0
1569342966437.5,19,-56,23,0,0,0,0,0
1569342966468.75,19,-56,23,0,0,0,0,0
1569342966500,20,-56,23,0,0,0,0,0
1569342966531.25,19,-56,23,0,0,0,0,0
1569342966562.5,19,-56,24,0,0,0,0,0
1569342966593.75,20,-56,23,0,0,0,0,0
1569342966625,20,-56,23,0,0,0,0,0
1569342966656.25,20,-56,24,0,0,0,0,0
1569342966687.5,19,-56,24,0,0,0,0,0
1569342966718.75,19,-56,24,0,0,0,0,0
1569342966750,20,-56,24,0,0,0,0,0
1569342966781.25,20,-56,23,0,0,0,0,0
1569342966812.5,20,-56,23,0,0,0,0,0
1569342966843.75,19,-56,23,0,0,0,0,0
1569342966875,19,-56,23,0,0,0,0,0
1569342966906.25,19,-56,23,0,0,0,0,0
1569342966937.5,20,-56,22,0,0,0,0,0
1569342966968.75,19,-56,23,0,0,0,0,0
1569342967000,20,-56,23,0,0,0,0,0
1569342967031.25,19,-56,22,0,0,0,0,0
1569342967062.5,19,-57,22,0,0,0,0,0
1569342967093.75,20,-56,22,0,0,0,0,0
1569342967125,20,-56,23,0,0,0,0,0
1569342967156.25,19,-56,23,0,0,0,0,0
1569342967187.5,20,-56,22,0,0,0,0,0
1569342967218.75,20,-56,23,0,0,0,0,0
1569342967250,20,-56,22,0,0,0,0,0
1569342967281.25,20,-56,22,0,0,0,0,0
1569342967312.5,20,-56,23,0,0,0,0,0
1569342967343.75,20,-56,23,0,0,0,0,0
1569342967375,20,-56,23,0,0,0,0,0
1569342967406.25,20,-56,23,0,0,0,0,0
1569342967437.5,20,-56,23,0,0,0,0,0
1569342967468.75,20,-56,23,0,0,0,0,0
1569342967500,21,-56,23,0,0,0,0,0
1569342967531.25,20,-56,23,0,0,0,0,0
1569342967562.5,19,-56,23,0,0,0,0,0
1569342967593.75,20,-56,23,0,0,0,0,0
1569342967625,20,-56,23,0,0,0,0,0
1569342967656.25,20,-56,23,0,0,0,0,0
1569342967687.5,20,-56,23,0,0,0,0,0
1569342967718.75,20,-56,23,0,0,0,0,0
1569342967750,20,-56,22,0,0,0,0,0
1569342967781.25,20,-56,23,0,0,0,0,0
1569342967812.5,20,-56,23,0,0,0,0,0
1569342967843.75,20,-56,23,0,0,0,0,0
1569342967875,20,-56,23,0,0,0,0,0
1569342967906.25,20,-56,23,0,0,0,0,0
1569342967937.5,20,-56,23,0,0,0,0,0
1569342967968.75,20,-56,23,0,0,0,0,0
1569342968000,20,-56,23,0,0,0,0,0
1569342968031.25,20,-56,23,0,0,0,0,0
1569342968062.5,20,-56,23,0,0,0,0,0
1569342968093.75,19,-56,23,0,0,0,0,0
1569342968125,20,-56,23,0,0,0,0,0
1569342968156.25,20,-56,22,0,0,0,0,0
1569342968187.5,21,-56,22,0,0,0,0,0
1569342968218.75,20,-56,22,0,0,0,0,0
1569342968250,20,-57,21,0,0,0,0,0
1569342968281.25,20,-57,21,0,0,0,0,0
1569342968312.5,21,-56,21,0,0,0,0,0
1569342968343.75,20,-56,22,0,0,0,0,0
1569342968375,20,-56,21,0,0,0,0,0
1569342968406.25,21,-56,21,0,0,0,0,0
1569342968437.5,21,-56,20,0,0,0,0,0
1569342968468.75,23,-57,20,0,0,0,0,0
1569342968500,19,-56,22,0,0,0,0,0
1569342968531.25,19,-56,23,0,0,0,0,0
1569342968562.5,22,-56,22,0,0,0,0,0
1569342968593.75,23,-56,23,0,0,0,0,0
1569342968625,19,-55,24,0,0,0,0,0
1569342968656.25,21,-56,23,0,0,0,0,0
1569342968687.5,23,-57,21,0,0,0,0,0
1569342968718.75,19,-56,24,0,0,0,0,0
1569342968750,21,-56,23,0,0,0,0,0
1569342968781.25,21,-55,23,0,0,0,0,0
1569342968812.5,21,-56,22,0,0,0,0,0
1569342968843.75,20,-55,24,0,0,0,0,0
1569342968875,21,-56,24,0,0,0,0,0
1569342968906.25,21,-56,24,0,0,0,0,0
1569342968937.5,19,-56,24,0,0,0,0,0
1569342968968.75,19,-55,25,0,0,0,0,0
1569342969000,20,-55,24,0,0,0,0,0
1569342969031.25,19,-55,25,0,0,0,0,0
1569342969062.5,20,-55,25,0,0,0,0,0
1569342969093.75,22,-55,25,0,0,0,0,0
1569342969125,17,-55,25,0,0,0,0,0
1569342969156.25,19,-55,25,0,0,0,0,0
1569342969187.5,21,-57,21,0,0,0,0,0
1569342969218.75,19,-58,22,0,0,0,0,0
1569342969250,18,-57,23,0,0,0,0,0
1569342969281.25,18,-55,25,0,0,0,0,0
1569342969312.5,19,-55,24,0,0,0,0,0
1569342969343.75,20,-56,23,0,0,0,0,0
1569342969375,22,-57,22,0,0,0,0,0
1569342969406.25,18,-56,24,0,0,0,0,0
1569342969437.5,19,-56,23,0,0,0,0,0
1569342969468.75,22,-56,23,0,0,0,0,0
1569342969500,19,-56,23,0,0,0,0,0
1569342969531.25,20,-56,24,0,0,0,0,0
1569342969562.5,21,-55,23,0,0,0,0,0
1569342969593.75,21,-57,22,0,0,0,0,0
1569342969625,22,-57,23,0,0,0,0,0
1569342969656.25,19,-55,23,0,0,0,0,0
1569342969687.5,20,-56,23,0,0,0,0,0
1569342969718.75,17,-55,24,0,0,0,0,0
1569342969750,19,-56,23,0,0,0,0,0
1569342969781.25,20,-56,24,0,0,0,0,0
1569342969812.5,21,-56,23,0,0,0,0,0
1569342969843.75,18,-56,24,0,0,0,0,0
1569342969875,18,-56,24,0,0,0,0,0
1569342969906.25,19,-56,23,0,0,0,0,0
1569342969937.5,19,-56,24,0,0,0,0,0
1569342969968.75,20,-56,24,0,0,0,0,0
1569342970000,19,-56,24,0,0,0,0,0
1569342970031.25,20,-56,24,0,0,0,0,0
1569342970062.5,19,-56,24,0,0,0,0,0
1569342970093.75,19,-56,24,0,0,0,0,0
1569342970125,19,-55,24,0,0,0,0,0
1569342970156.25,20,-56,24,0,0,0,0,0
1569342970187.5,19,-55,24,0,0,0,0,0
1569342970218.75,20,-56,24,0,0,0,0,0
1569342970250,19,-56,24,0,0,0,0,0
1569342970281.25,19,-55,24,0,0,0,0,0
1569342970312.5,19,-56,25,0,0,0,0,0
1569342970343.75,19,-55,25,0,0,0,0,0
1569342970375,19,-56,24,0,0,0,0,0
1569342970406.25,19,-56,24,0,0,0,0,0
1569342970437.5,20,-56,24,0,0,0,0,0
1569342970468.75,19,-56,24,0,0,0,0,0
1569342970500,19,-55,25,0,0,0,0,0
1569342970531.25,20,-55,24,0,0,0,0,0
1569342970562.5,18,-55,24,0,0,0,0,0
1569342970593.75,18,-55,24,0,0,0,0,0
1569342970625,21,-56,23,0,0,0,0,0
1569342970656.25,19,-55,25,0,0,0,0,0
1569342970687.5,18,-55,25,0,0,0,0,0
1569342970718.75,20,-56,24,0,0,0,0,0
1569342970750,19,-55,24,0,0,0,0,0
1569342970781.25,19,-56,24,0,0,0,0,0
1569342970812.5,19,-56,24,0,0,0,0,0
1569342970843.75,19,-55,24,0,0,0,0,0
1569342970875,19,-56,24,0,0,0,0,0
1569342970906.25,19,-56,24,0,0,0,0,0
1569342970937.5,19,-56,24,0,0,0,0,0
1569342970968.75,20,-56,24,0,0,0,0,0
1569342971000,19,-55,24,0,0,0,0,0
1569342971031.25,20,-56,24,0,0,0,0,0
1569342971062.5,19,-56,24,0,0,0,0,0
1569342971093.75,19,-56,24,0,0,0,0,0
1569342971125,20,-56,24,0,0,0,0,0
1569342971156.25,19,-56,24,0,0,0,0,0
1569342971187.5,20,-56,24,0,0,0,0,0
1569342971218.75,20,-56,24,0,0,0,0,0
1569342971250,19,-56,24,0,0,0,0,0
1569342971281.25,20,-56,24,0,0,0,0,0
1569342971312.5,19,-56,24,0,0,0,0,0
1569342971343.75,20,-56,24,0,0,0,0,0
1569342971375,19,-56,24,0,0,0,0,0
1569342971406.25,19,-56,24,0,0,0,0,0
1569342971437.5,19,-56,24,0,0,0,0,0
1569342971468.75,20,-56,24,0,0,0,0,0
1569342971500,19,-56,24,0,0,0,0,0
1569342971531.25,20,-56,24,0,0,0,0,0
1569342971562.5,19,-56,24,0,0,0,0,0
1569342971593.75,20,-56,24,0,0,0,0,0
1569342971625,20,-56,24,0,0,0,0,0
1569342971656.25,19,-56,24,0,0,0,0,0
1569342971687.5,20,-56,24,0,0,0,0,0
1569342971718.75,20,-56,24,0,0,0,0,0
1569342971750,20,-56,24,0,0,0,0,0
1569342971781.25,20,-56,24,0,0,0,0,0
1569342971812.5,19,-56,24,0,0,0,0,0
1569342971843.75,20,-55,24,0,0,0,0,0
1569342971875,20,-56,24,0,0,0,0,0
1569342971906.25,20,-56,24,0,0,0,0,0
1569342971937.5,20,-56,24,0,0,0,0,0
1569342971968.75,20,-56,24,0,0,0,0,0
1569342972000,20,-55,24,0,0,0,0,0
1569342972031.25,20,-56,24,0,0,0,0,0
1569342972062.5,19,-56,24,0,0,0,0,0
1569342972093.75,20,-56,24,0,0,0,0,0
1569342972125,19,-56,24,0,0,0,0,0
1569342972156.25,19,-56,24,0,0,0,0,0
1569342972187.5,20,-56,23,0,0,0,0,0
1569342972218.75,19,-56,23,0,0,0,0,0
1569342972250,20,-56,23,0,0,0,0,0
1569342972281.25,19,-56,23,0,0,0,0,0
1569342972312.5,19,-56,23,0,0,0,0,0
1569342972343.75,19,-56,23,0,0,0,0,0
1569342972375,19,-56,22,0,0,0,0,0
1569342972406.25,23,-58,21,0,0,0,0,0
1569342972437.5,20,-56,22,0,0,0,0,0
1569342972468.75,16,-56,21,0,0,0,0,0
1569342972500,20,-55,23,0,0,0,0,0
1569342972531.25,17,-56,23,0,0,0,0,0
1569342972562.5,17,-56,22,0,0,0,0,0
1569342972593.75,24,-59,19,0,0,0,0,0
1569342972625,19,-57,19,0,0,0,0,0
1569342972656.25,21,-58,19,0,0,0,0,0
1569342972687.5,18,-58,17,0,0,0,0,0
1569342972718.75,24,-59,17,0,0,0,0,0
1569342972750,15,-58,18,0,0,0,0,0
1569342972781.25,15,-56,18,0,0,0,0,0
1569342972812.5,22,-60,14,0,0,0,0,0
1569342972843.75,24,-61,14,0,0,0,0,0
1569342972875,20,-59,16,0,0,0,0,0
1569342972906.25,18,-58,15,0,0,0,0,0
1569342972937.5,20,-59,15,0,0,0,0,0
1569342972968.75,20,-59,15,0,0,0,0,0
1569342973000,19,-58,15,0,0,0,0,0
1569342973031.25,18,-59,15,0,0,0,0,0
1569342973062.5,20,-59,14,0,0,0,0,0
1569342973093.75,22,-59,14,0,0,0,0,0
1569342973125,18,-58,15,0,0,0,0,0
1569342973156.25,29,-61,12,0,0,0,0,0
1569342973187.5,23,-60,8,0,0,0,0,0
1569342973218.75,21,-59,13,0,0,0,0,0
1569342973250,18,-60,17,0,0,0,0,0
1569342973281.25,17,-60,15,0,0,0,0,0
1569342973312.5,18,-59,17,0,0,0,0,0
1569342973343.75,17,-59,19,0,0,0,0,0
1569342973375,17,-59,17,0,0,0,0,0
1569342973406.25,16,-59,18,0,0,0,0,0
1569342973437.5,13,-59,20,0,0,0,0,0
1569342973468.75,13,-59,22,0,0,0,0,0
1569342973500,9,-58,27,0,0,0,0,0
1569342973531.25,9,-58,21,0,0,0,0,0
1569342973562.5,12,-59,20,0,0,0,0,0
1569342973593.75,18,-60,17,0,0,0,0,0
1569342973625,16,-60,18,0,0,0,0,0
1569342973656.25,15,-59,18,0,0,0,0,0
1569342973687.5,15,-60,17,0,0,0,0,0
1569342973718.75,15,-60,17,0,0,0,0,0
1569342973750,15,-59,18,0,0,0,0,0
1569342973781.25,14,-59,19,0,0,0,0,0
1569342973812.5,14,-59,19,0,0,0,0,0
1569342973843.75,14,-59,19,0,0,0,0,0
1569342973875,15,-59,19,0,0,0,0,0
1569342973906.25,15,-59,19,0,0,0,0,0
1569342973937.5,15,-59,19,0,0,0,0,0
1569342973968.75,16,-59,19,0,0,0,0,0
1569342974000,15,-59,19,0,0,0,0,0
1569342974031.25,14,-59,19,0,0,0,0,0
1569342974062.5,15,-59,19,0,0,0,0,0
1569342974093.75,17,-59,19,0,0,0,0,0
1569342974125,16,-59,19,0,0,0,0,0
1569342974156.25,14,-59,19,0,0,0,0,0
1569342974187.5,15,-59,19,0,0,0,0,0
1569342974218.75,16,-59,19,0,0,0,0,0
1569342974250,16,-59,19,0,0,0,0,0
1569342974281.25,16,-59,19,0,0,0,0,0
1569342974312.5,15,-59,19,0,0,0,0,0
1569342974343.75,15,-58,20,0,0,0,0,0
1569342974375,15,-59,19,0,0,0,0,0
1569342974406.25,16,-59,18,0,0,0,0,0
1569342974437.5,17,-59,18,0,0,0,0,0
1569342974468.75,17,-59,18,0,0,0,0,0
1569342974500,17,-59,18,0,0,0,0,0
1569342974531.25,16,-59,18,0,0,0,0,0
1569342974562.5,16,-59,19,0,0,0,0,0
1569342974593.75,16,-59,19,0,0,0,0,0
1569342974625,16,-59,19,0,0,0,0,0
1569342974656.25,16,-59,19,0,0,0,0,0
1569342974687.5,16,-59,19,0,0,0,0,0
1569342974718.75,17,-59,19,0,0,0,0,0
1569342974750,17,-59,19,0,0,0,0,0
1569342974781.25,16,-59,19,0,0,0,0,0
1569342974812.5,17,-59,19,0,0,0,0,0
1569342974843.75,16,-59,19,0,0,0,0,0
1569342974875,16,-59,19,0,0,0,0,0
1569342974906.25,16,-59,19,0,0,0,0,0
1569342974937.5,16,-58,19,0,0,0,0,0
1569342974968.75,17,-58,19,0,0,0,0,0
1569342975000,17,-59,19,0,0,0,0,0
1569342975031.25,17,-59,19,0,0,0,0,0
1569342975062.5,17,-58,19,0,0,0,0,0
1569342975093.75,17,-58,19,0,0,0,0,0
1569342975125,17,-59,19,0,0,0,0,0
1569342975156.25,16,-59,19,0,0,0,0,0
1569342975187.5,16,-59,19,0,0,0,0,0
1569342975218.75,17,-59,19,0,0,0,0,0
1569342975250,17,-59,18,0,0,0,0,0
1569342975281.25,17,-59,17,0,0,0,0,0
1569342975312.5,17,-59,18,0,0,0,0,0
1569342975343.75,16,-59,17,0,0,0,0,0
1569342975375,21,-62,16,0,0,0,0,0
1569342975406.25,15,-57,19,0,0,0,0,0
1569342975437.5,17,-61,15,0,0,0,0,0
1569342975468.75,19,-60,15,0,0,0,0,0
1569342975500,16,-59,16,0,0,0,0,0
1569342975531.25,17,-59,16,0,0,0,0,0
1569342975562.5,17,-59,16,0,0,0,0,0
1569342975593.75,17,-59,16,0,0,0,0,0
1569342975625,17,-59,16,0,0,0,0,0
1569342975656.25,17,-60,16,0,0,0,0,0
1569342975687.5,17,-59,16,0,0,0,0,0
1569342975718.75,17,-59,16,0,0,0,0,0
1569342975750,19,-60,16,0,0,0,0,0
1569342975781.25,20,-60,15,0,0,0,0,0
1569342975812.5,16,-59,17,0,0,0,0,0
1569342975843.75,10,-56,21,0,0,0,0,0
1569342975875,14,-58,19,0,0,0,0,0
1569342975906.25,22,-60,16,0,0,0,0,0
1569342975937.5,11,-58,18,0,0,0,0,0
1569342975968.75,11,-57,19,0,0,0,0,0
1569342976000,13,-59,18,0,0,0,0,0
1569342976031.25,29,-66,3,0,0,0,0,0
1569342976062.5,27,-62,6,0,0,0,0,0
1569342976093.75,18,-58,13,0,0,0,0,0
1569342976125,14,-60,16,0,0,0,0,0
1569342976156.25,15,-60,16,0,0,0,0,0
1569342976187.5,16,-58,17,0,0,0,0,0
1569342976218.75,16,-58,17,0,0,0,0,0
1569342976250,16,-59,16,0,0,0,0,0
1569342976281.25,17,-60,15,0,0,0,0,0
1569342976312.5,18,-60,15,0,0,0,0,0
1569342976343.75,18,-59,15,0,0,0,0,0
1569342976375,17,-59,15,0,0,0,0,0
1569342976406.25,17,-59,16,0,0,0,0,0
1569342976437.5,17,-59,16,0,0,0,0,0
1569342976468.75,17,-59,15,0,0,0,0,0
1569342976500,17,-59,16,0,0,0,0,0
1569342976531.25,17,-59,15,0,0,0,0,0
1569342976562.5,17,-59,15,0,0,0,0,0
1569342976593.75,17,-59,16,0,0,0,0,0
1569342976625,17,-59,16,0,0,0,0,0
1569342976656.25,17,-59,16,0,0,0,0,0
1569342976687.5,17,-59,16,0,0,0,0,0
1569342976718.75,17,-60,15,0,0,0,0,0
1569342976750,26,-64,9,0,0,0,0,0
1569342976781.25,25,-60,7,0,0,0,0,0
1569342976812.5,22,-62,8,0,0,0,0,0
1569342976843.75,17,-62,18,0,0,0,0,0
1569342976875,14,-61,17,0,0,0,0,0
1569342976906.25,9,-56,18,0,0,0,0,0
1569342976937.5,9,-55,23,0,0,0,0,0
1569342976968.75,8,-57,26,0,0,0,0,0
1569342977000,7,-59,25,0,0,0,0,0
1569342977031.25,2,-57,28,0,0,0,0,0
1569342977062.5,-6,-54,31,0,0,0,0,0
1569342977093.75,13,-62,18,0,0,0,0,0
1569342977125,16,-62,16,0,0,0,0,0
1569342977156.25,14,-59,21,0,0,0,0,0
1569342977187.5,9,-60,20,0,0,0,0,0
1569342977218.75,9,-60,20,0,0,0,0,0
1569342977250,12,-60,20,0,0,0,0,0
1569342977281.25,11,-60,20,0,0,0,0,0
1569342977312.5,11,-60,20,0,0,0,0,0
1569342977343.75,10,-59,20,0,0,0,0,0
1569342977375,11,-60,20,0,0,0,0,0
1569342977406.25,12,-60,20,0,0,0,0,0
1569342977437.5,11,-60,20,0,0,0,0,0
1569342977468.75,11,-60,20,0,0,0,0,0
1569342977500,11,-60,20,0,0,0,0,0
1569342977531.25,11,-60,20,0,0,0,0,0
1569342977562.5,11,-60,20,0,0,0,0,0
1569342977593.75,11,-60,20,0,0,0,0,0
1569342977625,11,-59,20,0,0,0,0,0
1569342977656.25,11,-59,20,0,0,0,0,0
1569342977687.5,11,-60,20,0,0,0,0,0
1569342977718.75,11,-59,20,0,0,0,0,0
1569342977750,11,-59,21,0,0,0,0,0
1569342977781.25,12,-60,20,0,0,0,0,0
1569342977812.5,11,-59,20,0,0,0,0,0
1569342977843.75,12,-60,20,0,0,0,0,0
1569342977875,11,-59,20,0,0,0,0,0
1569342977906.25,8,-57,22,0,0,0,0,0
1569342977937.5,7,-55,24,0,0,0,0,0
1569342977968.75,10,-59,22,0,0,0,0,0
1569342978000,14,-63,14,0,0,0,0,0
1569342978031.25,18,-64,9,0,0,0,0,0
1569342978062.5,17,-62,13,0,0,0,0,0
1569342978093.75,13,-60,15,0,0,0,0,0
1569342978125,15,-61,13,0,0,0,0,0
1569342978156.25,16,-61,14,0,0,0,0,0
1569342978187.5,13,-59,15,0,0,0,0,0
1569342978218.75,15,-60,15,0,0,0,0,0
1569342978250,14,-60,16,0,0,0,0,0
1569342978281.25,15,-60,12,0,0,0,0,0
1569342978312.5,18,-61,10,0,0,0,0,0
1569342978343.75,15,-62,7,0,0,0,0,0
1569342978375,14,-63,7,0,0,0,0,0
1569342978406.25,16,-61,12,0,0,0,0,0
1569342978437.5,14,-60,13,0,0,0,0,0
1569342978468.75,14,-60,12,0,0,0,0,0
1569342978500,15,-62,10,0,0,0,0,0
1569342978531.25,14,-61,12,0,0,0,0,0
1569342978562.5,15,-61,11,0,0,0,0,0
1569342978593.75,14,-62,10,0,0,0,0,0
1569342978625,14,-61,11,0,0,0,0,0
1569342978656.25,15,-61,12,0,0,0,0,0
1569342978687.5,14,-61,12,0,0,0,0,0
1569342978718.75,14,-62,11,0,0,0,0,0
1569342978750,13,-62,11,0,0,0,0,0
1569342978781.25,16,-61,13,0,0,0,0,0
1569342978812.5,15,-61,12,0,0,0,0,0
1569342978843.75,13,-61,12,0,0,0,0,0
1569342978875,13,-62,11,0,0,0,0,0
1569342978906.25,15,-60,13,0,0,0,0,0
1569342978937.5,15,-60,13,0,0,0,0,0
1569342978968.75,14,-61,12,0,0,0,0,0
1569342979000,14,-61,12,0,0,0,0,0
1569342979031.25,14,-61,12,0,0,0,0,0
1569342979062.5,14,-61,12,0,0,0,0,0
1569342979093.75,14,-61,13,0,0,0,0,0
1569342979125,13,-61,12,0,0,0,0,0
1569342979156.25,14,-61,13,0,0,0,0,0
1569342979187.5,14,-61,13,0,0,0,0,0
1569342979218.75,14,-61,12,0,0,0,0,0
1569342979250,14,-61,12,0,0,0,0,0
1569342979281.25,14,-61,12,0,0,0,0,0
1569342979312.5,14,-61,12,0,0,0,0,0
1569342979343.75,14,-61,13,0,0,0,0,0
1569342979375,14,-61,12,0,0,0,0,0
1569342979406.25,14,-61,13,0,0,0,0,0
1569342979437.5,13,-61,12,0,0,0,0,0
1569342979468.75,13,-61,12,0,0,0,0,0
1569342979500,14,-61,13,0,0,0,0,0
1569342979531.25,14,-61,13,0,0,0,0,0
1569342979562.5,14,-61,13,0,0,0,0,0
1569342979593.75,13,-61,12,0,0,0,0,0
1569342979625,14,-61,12,0,0,0,0,0
1569342979656.25,14,-61,12,0,0,0,0,0
1569342979687.5,14,-61,12,0,0,0,0,0
1569342979718.75,14,-61,12,0,0,0,0,0
1569342979750,14,-61,12,0,0,0,0,0
1569342979781.25,14,-61,13,0,0,0,0,0
1569342979812.5,13,-61,12,0,0,0,0,0
1569342979843.75,14,-61,12,0,0,0,0,0
1569342979875,14,-61,12,0,0,0,0,0
1569342979906.25,14,-61,12,0,0,0,0,0
1569342979937.5,14,-61,11,0,0,0,0,0
1569342979968.75,14,-61,13,0,0,0,0,0
1569342980000,14,-61,13,0,0,0,0,0
1569342980031.25,13,-61,13,0,0,0,0,0
1569342980062.5,14,-62,12,0,0,0,0,0
1569342980093.75,15,-61,12,0,0,0,0,0
1569342980125,14,-61,13,0,0,0,0,0
1569342980156.25,13,-61,13,0,0,0,0,0
1569342980187.5,13,-61,13,0,0,0,0,0
1569342980218.75,15,-61,12,0,0,0,0,0
1569342980250,15,-61,12,0,0,0,0,0
1569342980281.25,14,-61,12,0,0,0,0,0
1569342980312.5,13,-61,12,0,0,0,0,0
1569342980343.75,14,-61,13,0,0,0,0,0
1569342980375,14,-61,13,0,0,0,0,0
1569342980406.25,14,-61,13,0,0,0,0,0
1569342980437.5,14,-61,12,0,0,0,0,0
1569342980468.75,14,-61,12,0,0,0,0,0
1569342980500,14,-61,13,0,0,0,0,0
1569342980531.25,14,-61,13,0,0,0,0,0
1569342980562.5,14,-61,13,0,0,0,0,0
1569342980593.75,14,-61,12,0,0,0,0,0
1569342980625,14,-61,12,0,0,0,0,0
1569342980656.25,14,-61,13,0,0,0,0,0
1569342980687.5,14,-61,13,0,0,0,0,0
1569342980718.75,14,-61,13,0,0,0,0,0
1569342980750,14,-61,13,0,0,0,0,0
1569342980781.25,14,-61,12,0,0,0,0,0
1569342980812.5,14,-61,12,0,0,0,0,0
1569342980843.75,14,-61,13,0,0,0,0,0
1569342980875,14,-61,13,0,0,0,0,0
1569342980906.25,14,-61,13,0,0,0,0,0
1569342980937.5,14,-61,12,0,0,0,0,0
1569342980968.75,14,-61,12,0,0,0,0,0
1569342981000,14,-61,13,0,0,0,0,0
1569342981031.25,13,-61,12,0,0,0,0,0
1569342981062.5,14,-61,12,0,0,0,0,0
1569342981093.75,14,-61,12,0,0,0,0,0
1569342981125,14,-61,12,0,0,0,0,0
1569342981156.25,14,-61,12,0,0,0,0,0
1569342981187.5,14,-61,12,0,0,0,0,0
1569342981218.75,14,-61,12,0,0,0,0,0
1569342981250,14,-61,12,0,0,0,0,0
1569342981281.25,14,-61,13,0,0,0,0,0
1569342981312.5,13,-61,12,0,0,0,0,0
1569342981343.75,14,-62,12,0,0,0,0,0
1569342981375,14,-61,12,0,0,0,0,0
1569342981406.25,14,-61,13,0,0,0,0,0
1569342981437.5,14,-61,13,0,0,0,0,0
1569342981468.75,13,-61,13,0,0,0,0,0
1569342981500,14,-61,12,0,0,0,0,0
1569342981531.25,14,-61,12,0,0,0,0,0
1569342981562.5,14,-61,12,0,0,0,0,0
1569342981593.75,14,-61,12,0,0,0,0,0
1569342981625,14,-61,12,0,0,0,0,0
1569342981656.25,14,-61,13,0,0,0,0,0
1569342981687.5,14,-61,13,0,0,0,0,0
1569342981718.75,14,-61,12,0,0,0,0,0
1569342981750,14,-61,12,0,0,0,0,0
1569342981781.25,14,-61,12,0,0,0,0,0
1569342981812.5,14,-61,12,0,0,0,0,0
1569342981843.75,14,-61,12,0,0,0,0,0
1569342981875,14,-61,12,0,0,0,0,0
1569342981906.25,14,-61,12,0,0,0,0,0
1569342981937.5,14,-61,13,0,0,0,0,0
1569342981968.75,14,-61,12,0,0,0,0,0
1569342982000,14,-61,13,0,0,0,0,0
1569342982031.25,14,-61,12,0,0,0,0,0
1569342982062.5,14,-61,12,0,0,0,0,0
1569342982093.75,14,-61,12,0,0,0,0,0
1569342982125,14,-61,12,0,0,0,0,0
1569342982156.25,14,-61,13,0,0,0,0,0
1569342982187.5,14,-61,12,0,0,0,0,0
1569342982218.75,13,-61,12,0,0,0,0,0
1569342982250,14,-61,12,0,0,0,0,0
1569342982281.25,14,-61,12,0,0,0,0,0
1569342982312.5,14,-61,12,0,0,0,0,0
1569342982343.75,13,-61,13,0,0,0,0,0
1569342982375,14,-61,13,0,0,0,0,0
1569342982406.25,14,-61,13,0,0,0,0,0
1569342982437.5,14,-61,13,0,0,0,0,0
1569342982468.75,14,-61,12,0,0,0,0,0
1569342982500,15,-61,12,0,0,0,0,0
1569342982531.25,14,-61,13,0,0,0,0,0
1569342982562.5,14,-61,13,0,0,0,0,0
1569342982593.75,14,-61,13,0,0,0,0,0
1569342982625,14,-60,13,0,0,0,0,0
1569342982656.25,15,-61,13,0,0,0,0,0
1569342982687.5,15,-61,13,0,0,0,0,0
1569342982718.75,14,-61,13,0,0,0,0,0
1569342982750,14,-61,12,0,0,0,0,0
1569342982781.25,14,-61,13,0,0,0,0,0
1569342982812.5,14,-61,12,0,0,0,0,0
1569342982843.75,15,-60,13,0,0,0,0,0
1569342982875,15,-59,13,0,0,0,0,0
1569342982906.25,14,-61,12,0,0,0,0,0
1569342982937.5,13,-62,12,0,0,0,0,0
1569342982968.75,13,-60,18,0,0,0,0,0
1569342983000,13,-61,15,0,0,0,0,0
1569342983031.25,13,-59,14,0,0,0,0,0
1569342983062.5,15,-61,12,0,0,0,0,0
1569342983093.75,14,-64,14,0,0,0,0,0
1569342983125,14,-63,14,0,0,0,0,0
1569342983156.25,16,-60,13,0,0,0,0,0
1569342983187.5,14,-61,8,0,0,0,0,0
1569342983218.75,20,-61,5,0,0,0,0,0
1569342983250,24,-58,8,0,0,0,0,0
1569342983281.25,27,-57,2,0,0,0,0,0
1569342983312.5,28,-57,1,0,0,0,0,0
1569342983343.75,34,-51,0,0,0,0,0,0
1569342983375,37,-53,3,0,0,0,0,0
1569342983406.25,42,-53,13,0,0,0,0,0
1569342983437.5,40,-46,7,0,0,0,0,0
1569342983468.75,21,-40,4,0,0,0,0,0
1569342983500,38,-40,15,0,0,0,0,0
1569342983531.25,42,-50,8,0,0,0,0,0
1569342983562.5,63,-54,8,0,0,0,0,0
1569342983593.75,61,-49,-7,0,0,0,0,0
1569342983625,49,-39,-5,0,0,0,0,0
1569342983656.25,47,-40,2,0,0,0,0,0
1569342983687.5,47,-45,14,0,0,0,0,0
1569342983718.75,43,-43,12,0,0,0,0,0
1569342983750,45,-43,13,0,0,0,0,0
1569342983781.25,41,-47,23,0,0,0,0,0
1569342983812.5,38,-48,17,0,0,0,0,0
1569342983843.75,40,-51,22,0,0,0,0,0
1569342983875,37,-38,19,0,0,0,0,0
1569342983906.25,43,-36,27,0,0,0,0,0
1569342983937.5,46,-37,27,0,0,0,0,0
1569342983968.75,41,-35,18,0,0,0,0,0
1569342984000,41,-40,18,0,0,0,0,0
1569342984031.25,40,-41,23,0,0,0,0,0
1569342984062.5,41,-43,28,0,0,0,0,0
1569342984093.75,35,-42,29,0,0,0,0,0
1569342984125,31,-43,25,0,0,0,0,0
1569342984156.25,33,-46,28,0,0,0,0,0
1569342984187.5,33,-44,26,0,0,0,0,0
1569342984218.75,36,-41,26,0,0,0,0,0
1569342984250,42,-47,32,0,0,0,0,0
1569342984281.25,39,-46,29,0,0,0,0,0
1569342984312.5,34,-38,21,0,0,0,0,0
1569342984343.75,34,-38,27,0,0,0,0,0
1569342984375,32,-42,32,0,0,0,0,0
1569342984406.25,35,-46,31,0,0,0,0,0
1569342984437.5,41,-43,29,0,0,0,0,0
1569342984468.75,41,-35,29,0,0,0,0,0
1569342984500,34,-32,26,0,0,0,0,0
1569342984531.25,44,-37,30,0,0,0,0,0
1569342984562.5,39,-40,27,0,0,0,0,0
1569342984593.75,36,-41,26,0,0,0,0,0
1569342984625,41,-36,31,0,0,0,0,0
1569342984656.25,47,-33,33,0,0,0,0,0
1569342984687.5,54,-30,26,0,0,0,0,0
1569342984718.75,54,-35,16,0,0,0,0,0
1569342984750,52,-37,14,0,0,0,0,0
1569342984781.25,48,-41,17,0,0,0,0,0
1569342984812.5,36,-46,19,0,0,0,0,0
1569342984843.75,34,-48,20,0,0,0,0,0
1569342984875,42,-46,26,0,0,0,0,0
1569342984906.25,45,-42,25,0,0,0,0,0
1569342984937.5,47,-36,21,0,0,0,0,0
1569342984968.75,43,-35,17,0,0,0,0,0
1569342985000,46,-39,19,0,0,0,0,0
1569342985031.25,44,-41,19,0,0,0,0,0
1569342985062.5,46,-41,18,0,0,0,0,0
1569342985093.75,48,-44,19,0,0,0,0,0
1569342985125,45,-49,20,0,0,0,0,0
1569342985156.25,9,-66,22,0,0,0,0,0
1569342985187.5,55,-26,27,0,0,0,0,0
1569342985218.75,54,-24,21,0,0,0,0,0
1569342985250,64,-22,18,0,0,0,0,0
1569342985281.25,67,-25,23,0,0,0,0,0
1569342985312.5,34,-29,19,0,0,0,0,0
1569342985343.75,34,-41,28,0,0,0,0,0
1569342985375,39,-44,29,0,0,0,0,0
1569342985406.25,46,-49,22,0,0,0,0,0
1569342985437.5,49,-48,24,0,0,0,0,0
1569342985468.75,49,-44,25,0,0,0,0,0
1569342985500,44,-44,36,0,0,0,0,0
1569342985531.25,37,-43,31,0,0,0,0,0
1569342985562.5,28,-38,22,0,0,0,0,0
1569342985593.75,34,-37,16,0,0,0,0,0
1569342985625,37,-35,15,0,0,0,0,0
1569342985656.25,37,-36,17,0,0,0,0,0
1569342985687.5,51,-57,16,0,0,0,0,0
1569342985718.75,56,-41,24,0,0,0,0,0
1569342985750,28,-47,39,0,0,0,0,0
1569342985781.25,22,-33,33,0,0,0,0,0
1569342985812.5,26,-30,30,0,0,0,0,0
1569342985843.75,44,-33,25,0,0,0,0,0
1569342985875,52,-36,28,0,0,0,0,0
1569342985906.25,52,-41,29,0,0,0,0,0
1569342985937.5,43,-42,23,0,0,0,0,0
1569342985968.75,33,-53,21,0,0,0,0,0
1569342986000,39,-44,25,0,0,0,0,0
1569342986031.25,43,-43,21,0,0,0,0,0
1569342986062.5,37,-45,21,0,0,0,0,0
1569342986093.75,40,-44,19,0,0,0,0,0
1569342986125,46,-39,27,0,0,0,0,0
1569342986156.25,42,-48,31,0,0,0,0,0
1569342986187.5,28,-39,23,0,0,0,0,0
1569342986218.75,43,-27,30,0,0,0,0,0
1569342986250,44,-29,33,0,0,0,0,0
1569342986281.25,53,-45,33,0,0,0,0,0
1569342986312.5,47,-38,29,0,0,0,0,0
1569342986343.75,46,-35,25,0,0,0,0,0
1569342986375,48,-33,27,0,0,0,0,0
1569342986406.25,43,-35,24,0,0,0,0,0
1569342986437.5,41,-35,22,0,0,0,0,0
1569342986468.75,45,-40,19,0,0,0,0,0
1569342986500,50,-59,5,0,0,0,0,0
1569342986531.25,48,-55,4,0,0,0,0,0
1569342986562.5,42,-48,12,0,0,0,0,0
1569342986593.75,33,-45,18,0,0,0,0,0
1569342986625,32,-45,20,0,0,0,0,0
1569342986656.25,36,-44,27,0,0,0,0,0
1569342986687.5,35,-44,25,0,0,0,0,0
1569342986718.75,35,-41,24,0,0,0,0,0
1569342986750,48,-44,23,0,0,0,0,0
1569342986781.25,43,-44,21,0,0,0,0,0
1569342986812.5,41,-44,21,0,0,0,0,0
1569342986843.75,40,-45,20,0,0,0,0,0
1569342986875,40,-45,18,0,0,0,0,0
1569342986906.25,40,-43,17,0,0,0,0,0
1569342986937.5,40,-46,15,0,0,0,0,0
1569342986968.75,39,-47,15,0,0,0,0,0
1569342987000,38,-47,15,0,0,0,0,0
1569342987031.25,43,-46,13,0,0,0,0,0
1569342987062.5,45,-47,12,0,0,0,0,0
1569342987093.75,40,-45,16,0,0,0,0,0
1569342987125,39,-46,17,0,0,0,0,0
1569342987156.25,38,-45,17,0,0,0,0,0
1569342987187.5,40,-46,15,0,0,0,0,0
1569342987218.75,41,-47,13,0,0,0,0,0
1569342987250,41,-47,13,0,0,0,0,0
1569342987281.25,40,-46,15,0,0,0,0,0
1569342987312.5,40,-46,16,0,0,0,0,0
1569342987343.75,40,-46,17,0,0,0,0,0
1569342987375,39,-46,16,0,0,0,0,0
1569342987406.25,40,-46,15,0,0,0,0,0
1569342987437.5,40,-46,16,0,0,0,0,0
1569342987468.75,40,-46,16,0,0,0,0,0
1569342987500,40,-46,17,0,0,0,0,0
1569342987531.25,39,-46,17,0,0,0,0,0
1569342987562.5,40,-46,17,0,0,0,0,0
1569342987593.75,39,-46,18,0,0,0,0,0
1569342987625,39,-46,17,0,0,0,0,0
1569342987656.25,41,-46,17,0,0,0,0,0
1569342987687.5,40,-46,17,0,0,0,0,0
1569342987718.75,39,-47,16,0,0,0,0,0
1569342987750,39,-47,16,0,0,0,0,0
1569342987781.25,39,-47,16,0,0,0,0,0
1569342987812.5,38,-48,17,0,0,0,0,0
1569342987843.75,37,-48,17,0,0,0,0,0
1569342987875,37,-48,17,0,0,0,0,0
1569342987906.25,37,-47,18,0,0,0,0,0
1569342987937.5,36,-48,19,0,0,0,0,0
1569342987968.75,36,-48,19,0,0,0,0,0
1569342988000,35,-47,19,0,0,0,0,0
1569342988031.25,35,-46,19,0,0,0,0,0
1569342988062.5,36,-46,18,0,0,0,0,0
1569342988093.75,35,-50,19,0,0,0,0,0
1569342988125,33,-53,17,0,0,0,0,0
1569342988156.25,32,-51,17,0,0,0,0,0
1569342988187.5,33,-52,19,0,0,0,0,0
1569342988218.75,34,-51,19,0,0,0,0,0
1569342988250,36,-50,20,0,0,0,0,0
1569342988281.25,34,-49,19,0,0,0,0,0
1569342988312.5,33,-49,19,0,0,0,0,0
1569342988343.75,34,-49,18,0,0,0,0,0
1569342988375,36,-48,17,0,0,0,0,0
1569342988406.25,36,-49,17,0,0,0,0,0
1569342988437.5,35,-52,18,0,0,0,0,0
1569342988468.75,33,-52,15,0,0,0,0,0
1569342988500,31,-51,14,0,0,0,0,0
1569342988531.25,32,-53,11,0,0,0,0,0
1569342988562.5,38,-57,3,0,0,0,0,0
1569342988593.75,41,-59,0,0,0,0,0,0
1569342988625,45,-67,-4,0,0,0,0,0
1569342988656.25,41,-69,-6,0,0,0,0,0
1569342988687.5,40,-66,-9,0,0,0,0,0
1569342988718.75,41,-65,-2,0,0,0,0,0
1569342988750,20,-65,-4,0,0,0,0,0
1569342988781.25,14,-63,-4,0,0,0,0,0
1569342988812.5,22,-60,13,0,0,0,0,0
1569342988843.75,9,-60,12,0,0,0,0,0
1569342988875,6,-60,6,0,0,0,0,0
1569342988906.25,18,-57,11,0,0,0,0,0
1569342988937.5,15,-57,10,0,0,0,0,0
1569342988968.75,9,-52,11,0,0,0,0,0
1569342989000,13,-56,3,0,0,0,0,0
1569342989031.25,13,-54,1,0,0,0,0,0
1569342989062.5,13,-53,3,0,0,0,0,0
1569342989093.75,15,-53,5,0,0,0,0,0
1569342989125,13,-54,2,0,0,0,0,0
1569342989156.25,15,-56,-1,0,0,0,0,0
1569342989187.5,23,-59,10,0,0,0,0,0
1569342989218.75,17,-61,7,0,0,0,0,0
1569342989250,12,-65,-2,0,0,0,0,0
1569342989281.25,15,-60,4,0,0,0,0,0
1569342989312.5,17,-62,5,0,0,0,0,0
1569342989343.75,10,-61,5,0,0,0,0,0
1569342989375,11,-60,3,0,0,0,0,0
1569342989406.25,13,-61,3,0,0,0,0,0
1569342989437.5,5,-61,6,0,0,0,0,0
1569342989468.75,8,-61,5,0,0,0,0,0
1569342989500,13,-66,9,0,0,0,0,0
1569342989531.25,9,-63,10,0,0,0,0,0
1569342989562.5,5,-61,7,0,0,0,0,0
1569342989593.75,8,-61,7,0,0,0,0,0
1569342989625,7,-60,7,0,0,0,0,0
1569342989656.25,5,-62,8,0,0,0,0,0
1569342989687.5,9,-63,12,0,0,0,0,0
1569342989718.75,8,-62,7,0,0,0,0,0
1569342989750,6,-63,3,0,0,0,0,0
1569342989781.25,6,-62,10,0,0,0,0,0
1569342989812.5,10,-59,9,0,0,0,0,0
1569342989843.75,7,-62,1,0,0,0,0,0
1569342989875,12,-66,5,0,0,0,0,0
1569342989906.25,3,-63,13,0,0,0,0,0
1569342989937.5,1,-63,5,0,0,0,0,0
1569342989968.75,1,-58,-5,0,0,0,0,0
1569342990000,2,-67,-24,0,0,0,0,0
1569342990031.25,2,-73,-34,0,0,0,0,0
1569342990062.5,-4,-92,-61,0,0,0,0,0
1569342990093.75,-10,-87,-53,0,0,0,0,0
1569342990125,-7,-77,-40,0,0,0,0,0
1569342990156.25,-4,-48,-1,0,0,0,0,0
1569342990187.5,10,-34,26,0,0,0,0,0
1569342990218.75,18,22,122,0,0,0,0,0
1569342990250,-17,-40,59,0,0,0,0,0
1569342990281.25,-13,-28,16,0,0,0,0,0
1569342990312.5,-11,-24,84,0,0,0,0,0
1569342990343.75,-14,-38,61,0,0,0,0,0
1569342990375,-12,-35,45,0,0,0,0,0
1569342990406.25,-4,-44,13,0,0,0,0,0
1569342990437.5,-8,-49,-14,0,0,0,0,0
1569342990468.75,-9,-41,-19,0,0,0,0,0
1569342990500,73,-43,25,0,0,0,0,0
1569342990531.25,75,-21,7,0,0,0,0,0
1569342990562.5,89,-15,23,0,0,0,0,0
1569342990593.75,105,-20,64,0,0,0,0,0
1569342990625,38,-10,69,0,0,0,0,0
1569342990656.25,41,-9,66,0,0,0,0,0
1569342990687.5,35,-9,49,0,0,0,0,0
1569342990718.75,-9,-24,-8,0,0,0,0,0
1569342990750,14,-33,-6,0,0,0,0,0
1569342990781.25,57,-15,0,0,0,0,0,0
1569342990812.5,57,15,108,0,0,0,0,0
1569342990843.75,99,34,127,0,0,0,0,0
1569342990875,63,-7,53,0,0,0,0,0
1569342990906.25,68,-14,41,0,0,0,0,0
1569342990937.5,46,-16,32,0,0,0,0,0
1569342990968.75,35,-25,-1,0,0,0,0,0
1569342991000,38,-23,-6,0,0,0,0,0
1569342991031.25,36,-21,3,0,0,0,0,0
1569342991062.5,19,-33,20,0,0,0,0,0
1569342991093.75,17,-33,20,0,0,0,0,0
1569342991125,18,-25,38,0,0,0,0,0
1569342991156.25,34,-26,63,0,0,0,0,0
1569342991187.5,41,-24,61,0,0,0,0,0
1569342991218.75,62,-22,71,0,0,0,0,0
1569342991250,32,-15,66,0,0,0,0,0
1569342991281.25,35,-13,66,0,0,0,0,0
1569342991312.5,46,-11,60,0,0,0,0,0
1569342991343.75,36,-9,54,0,0,0,0,0
1569342991375,39,-10,54,0,0,0,0,0
1569342991406.25,46,-12,59,0,0,0,0,0
1569342991437.5,36,-10,57,0,0,0,0,0
1569342991468.75,24,-7,48,0,0,0,0,0
1569342991500,30,-12,42,0,0,0,0,0
1569342991531.25,29,-12,37,0,0,0,0,0
1569342991562.5,26,-11,28,0,0,0,0,0
1569342991593.75,29,-14,24,0,0,0,0,0
1569342991625,31,-17,25,0,0,0,0,0
1569342991656.25,45,-17,40,0,0,0,0,0
1569342991687.5,53,-1,69,0,0,0,0,0
1569342991718.75,74,-13,81,0,0,0,0,0
1569342991750,77,-23,55,0,0,0,0,0
1569342991781.25,63,-30,38,0,0,0,0,0
1569342991812.5,71,-36,49,0,0,0,0,0
1569342991843.75,43,-33,45,0,0,0,0,0
1569342991875,45,-36,23,0,0,0,0,0
1569342991906.25,54,-40,26,0,0,0,0,0
1569342991937.5,43,-38,31,0,0,0,0,0
1569342991968.75,38,-44,15,0,0,0,0,0
1569342992000,37,-47,19,0,0,0,0,0
1569342992031.25,34,-45,21,0,0,0,0,0
1569342992062.5,30,-45,17,0,0,0,0,0
1569342992093.75,22,-44,16,0,0,0,0,0
1569342992125,19,-48,15,0,0,0,0,0
1569342992156.25,21,-48,17,0,0,0,0,0
1569342992187.5,20,-42,10,0,0,0,0,0
1569342992218.75,6,-45,13,0,0,0,0,0
1569342992250,9,-50,16,0,0,0,0,0
1569342992281.25,20,-66,23,0,0,0,0,0
1569342992312.5,10,-65,13,0,0,0,0,0
1569342992343.75,2,-62,10,0,0,0,0,0
1569342992375,23,-62,20,0,0,0,0,0
1569342992406.25,14,-60,7,0,0,0,0,0
1569342992437.5,8,-60,8,0,0,0,0,0
1569342992468.75,7,-59,10,0,0,0,0,0
1569342992500,5,-62,8,0,0,0,0,0
1569342992531.25,11,-63,9,0,0,0,0,0
1569342992562.5,8,-64,13,0,0,0,0,0
1569342992593.75,4,-61,13,0,0,0,0,0
1569342992625,12,-62,16,0,0,0,0,0
1569342992656.25,8,-61,13,0,0,0,0,0
1569342992687.5,5,-62,15,0,0,0,0,0
1569342992718.75,7,-62,16,0,0,0,0,0
1569342992750,7,-63,11,0,0,0,0,0
1569342992781.25,5,-64,7,0,0,0,0,0
1569342992812.5,9,-66,6,0,0,0,0,0
1569342992843.75,-13,-73,-20,0,0,0,0,0
1569342992875,-18,-77,-34,0,0,0,0,0
1569342992906.25,-7,-81,-17,0,0,0,0,0
1569342992937.5,-1,-71,7,0,0,0,0,0
1569342992968.75,8,-58,28,0,0,0,0,0
1569342993000,24,-30,58,0,0,0,0,0
1569342993031.25,12,-5,103,0,0,0,0,0
1569342993062.5,11,-38,28,0,0,0,0,0
1569342993093.75,4,-37,40,0,0,0,0,0
1569342993125,17,-45,62,0,0,0,0,0
1569342993156.25,18,-43,63,0,0,0,0,0
1569342993187.5,26,-42,35,0,0,0,0,0
1569342993218.75,-32,-44,-2,0,0,0,0,0
1569342993250,-51,-45,3,0,0,0,0,0
1569342993281.25,-11,-53,28,0,0,0,0,0
1569342993312.5,-30,-69,17,0,0,0,0,0
1569342993343.75,-47,-66,3,0,0,0,0,0
1569342993375,-39,-62,-8,0,0,0,0,0
1569342993406.25,-3,-55,-27,0,0,0,0,0
1569342993437.5,19,-43,-33,0,0,0,0,0
1569342993468.75,46,45,-14,0,0,0,0,0
1569342993500,95,114,44,0,0,0,0,0
1569342993531.25,127,39,-122,0,0,0,0,0
1569342993562.5,-11,-59,-42,0,0,0,0,0
1569342993593.75,97,18,31,0,0,0,0,0
1569342993625,68,6,10,0,0,0,0,0
1569342993656.25,67,-4,-18,0,0,0,0,0
1569342993687.5,66,-11,-19,0,0,0,0,0
1569342993718.75,68,-15,-9,0,0,0,0,0
1569342993750,72,-22,14,0,0,0,0,0
1569342993781.25,66,-20,17,0,0,0,0,0
1569342993812.5,50,-40,13,0,0,0,0,0
1569342993843.75,35,-38,17,0,0,0,0,0
1569342993875,42,-41,33,0,0,0,0,0
1569342993906.25,39,-46,40,0,0,0,0,0
1569342993937.5,20,-41,27,0,0,0,0,0
1569342993968.75,23,-39,29,0,0,0,0,0
1569342994000,26,-32,50,0,0,0,0,0
1569342994031.25,16,-23,49,0,0,0,0,0
1569342994062.5,20,-20,54,0,0,0,0,0
1569342994093.75,38,-16,66,0,0,0,0,0
1569342994125,34,-19,50,0,0,0,0,0
1569342994156.25,32,-20,40,0,0,0,0,0
1569342994187.5,39,-17,31,0,0,0,0,0
1569342994218.75,48,-17,34,0,0,0,0,0
1569342994250,57,-20,41,0,0,0,0,0
1569342994281.25,53,-26,27,0,0,0,0,0
1569342994312.5,57,-26,21,0,0,0,0,0
1569342994343.75,60,-28,21,0,0,0,0,0
1569342994375,83,-37,30,0,0,0,0,0
1569342994406.25,61,-36,22,0,0,0,0,0
1569342994437.5,43,-34,16,0,0,0,0,0
1569342994468.75,39,-26,22,0,0,0,0,0
1569342994500,41,-24,19,0,0,0,0,0
1569342994531.25,45,-27,20,0,0,0,0,0
1569342994562.5,68,-33,13,0,0,0,0,0
1569342994593.75,62,-36,7,0,0,0,0,0
1569342994625,46,-28,7,0,0,0,0,0
1569342994656.25,53,-28,16,0,0,0,0,0
1569342994687.5,57,-26,17,0,0,0,0,0
1569342994718.75,63,-25,20,0,0,0,0,0
1569342994750,53,-28,10,0,0,0,0,0
1569342994781.25,55,-31,9,0,0,0,0,0
1569342994812.5,53,-32,6,0,0,0,0,0
1569342994843.75,53,-32,8,0,0,0,0,0
1569342994875,54,-30,12,0,0,0,0,0
1569342994906.25,53,-31,8,0,0,0,0,0
1569342994937.5,54,-32,7,0,0,0,0,0
1569342994968.75,54,-31,10,0,0,0,0,0
1569342995000,53,-30,12,0,0,0,0,0
1569342995031.25,56,-28,14,0,0,0,0,0
1569342995062.5,57,-29,11,0,0,0,0,0
1569342995093.75,49,-32,11,0,0,0,0,0
1569342995125,55,-33,15,0,0,0,0,0
1569342995156.25,55,-30,20,0,0,0,0,0
1569342995187.5,50,-26,26,0,0,0,0,0
1569342995218.75,54,-27,28,0,0,0,0,0
1569342995250,55,-28,28,0,0,0,0,0
1569342995281.25,48,-29,26,0,0,0,0,0
1569342995312.5,41,-26,25,0,0,0,0,0
1569342995343.75,51,-29,24,0,0,0,0,0
1569342995375,43,-30,23,0,0,0,0,0
1569342995406.25,46,-31,25,0,0,0,0,0
1569342995437.5,47,-28,30,0,0,0,0,0
1569342995468.75,49,-28,29,0,0,0,0,0
1569342995500,47,-28,30,0,0,0,0,0
1569342995531.25,48,-29,30,0,0,0,0,0
1569342995562.5,48,-28,30,0,0,0,0,0
1569342995593.75,48,-28,30,0,0,0,0,0
1569342995625,48,-28,30,0,0,0,0,0
1569342995656.25,47,-28,30,0,0,0,0,0
1569342995687.5,47,-28,31,0,0,0,0,0
1569342995718.75,48,-28,30,0,0,0,0,0
1569342995750,47,-28,31,0,0,0,0,0
1569342995781.25,47,-28,31,0,0,0,0,0
1569342995812.5,48,-28,30,0,0,0,0,0
1569342995843.75,48,-28,31,0,0,0,0,0
1569342995875,47,-28,31,0,0,0,0,0
1569342995906.25,47,-28,31,0,0,0,0,0
1569342995937.5,47,-28,30,0,0,0,0,0
1569342995968.75,48,-28,31,0,0,0,0,0
1569342996000,47,-28,31,0,0,0,0,0
1569342996031.25,48,-28,31,0,0,0,0,0
1569342996062.5,48,-28,31,0,0,0,0,0
1569342996093.75,48,-28,31,0,0,0,0,0
1569342996125,47,-28,31,0,0,0,0,0
1569342996156.25,47,-28,32,0,0,0,0,0
1569342996187.5,47,-28,32,0,0,0,0,0
1569342996218.75,47,-28,31,0,0,0,0,0
1569342996250,46,-28,32,0,0,0,0,0
1569342996281.25,46,-28,32,0,0,0,0,0
1569342996312.5,47,-28,32,0,0,0,0,0
1569342996343.75,46,-28,32,0,0,0,0,0
1569342996375,46,-28,32,0,0,0,0,0
1569342996406.25,46,-28,32,0,0,0,0,0
1569342996437.5,46,-28,33,0,0,0,0,0
1569342996468.75,46,-28,33,0,0,0,0,0
1569342996500,46,-28,33,0,0,0,0,0
1569342996531.25,46,-28,33,0,0,0,0,0
1569342996562.5,46,-28,33,0,0,0,0,0
1569342996593.75,46,-28,33,0,0,0,0,0
1569342996625,46,-28,33,0,0,0,0,0
1569342996656.25,46,-28,33,0,0,0,0,0
1569342996687.5,46,-28,33,0,0,0,0,0
1569342996718.75,46,-28,33,0,0,0,0,0
1569342996750,46,-28,33,0,0,0,0,0
1569342996781.25,46,-28,33,0,0,0,0,0
1569342996812.5,45,-28,34,0,0,0,0,0
1569342996843.75,45,-28,34,0,0,0,0,0
1569342996875,46,-28,34,0,0,0,0,0
1569342996906.25,45,-28,34,0,0,0,0,0
1569342996937.5,46,-28,34,0,0,0,0,0
1569342996968.75,45,-28,34,0,0,0,0,0
1569342997000,45,-28,34,0,0,0,0,0
1569342997031.25,45,-28,34,0,0,0,0,0
1569342997062.5,45,-28,34,0,0,0,0,0
1569342997093.75,45,-28,34,0,0,0,0,0
1569342997125,45,-27,35,0,0,0,0,0
1569342997156.25,45,-28,35,0,0,0,0,0
1569342997187.5,45,-28,34,0,0,0,0,0
1569342997218.75,45,-27,35,0,0,0,0,0
1569342997250,45,-28,35,0,0,0,0,0
1569342997281.25,45,-28,35,0,0,0,0,0
1569342997312.5,45,-28,35,0,0,0,0,0
1569342997343.75,45,-28,35,0,0,0,0,0
1569342997375,45,-28,35,0,0,0,0,0
1569342997406.25,45,-28,35,0,0,0,0,0
1569342997437.5,45,-28,35,0,0,0,0,0
1569342997468.75,45,-27,35,0,0,0,0,0
1569342997500,45,-28,35,0,0,0,0,0
1569342997531.25,45,-28,35,0,0,0,0,0
1569342997562.5,45,-28,35,0,0,0,0,0
1569342997593.75,45,-28,35,0,0,0,0,0
1569342997625,45,-28,35,0,0,0,0,0
1569342997656.25,45,-28,35,0,0,0,0,0
1569342997687.5,45,-28,35,0,0,0,0,0
1569342997718.75,45,-28,35,0,0,0,0,0
1569342997750,45,-28,35,0,0,0,0,0
1569342997781.25,45,-28,35,0,0,0,0,0
1569342997812.5,45,-28,35,0,0,0,0,0
1569342997843.75,44,-29,34,0,0,0,0,0
1569342997875,43,-31,34,0,0,0,0,0
1569342997906.25,46,-25,36,0,0,0,0,0
1569342997937.5,45,-28,36,0,0,0,0,0
1569342997968.75,45,-28,35,0,0,0,0,0
1569342998000,45,-28,35,0,0,0,0,0
1569342998031.25,45,-28,35,0,0,0,0,0
1569342998062.5,45,-28,35,0,0,0,0,0
1569342998093.75,44,-28,35,0,0,0,0,0
1569342998125,45,-28,35,0,0,0,0,0
1569342998156.25,45,-28,35,0,0,0,0,0
1569342998187.5,44,-28,35,0,0,0,0,0
1569342998218.75,45,-28,35,0,0,0,0,0
1569342998250,45,-28,35,0,0,0,0,0
1569342998281.25,45,-28,35,0,0,0,0,0
1569342998312.5,45,-28,35,0,0,0,0,0
