Timestamp,ACC_X,ACC_Y,ACC_Z,Note,AGG,ED,SIB,Condition
1564072575000,0,0,0,0,0,0,0,0
1564072575031.25,0,0,0,0,0,0,0,0
1564072575062.5,0,0,0,0,0,0,0,0
1564072575093.75,0,0,0,0,0,0,0,0
1564072575125,0,0,0,0,0,0,0,0
1564072575156.25,0,0,0,0,0,0,0,0
1564072575187.5,0,0,0,0,0,0,0,0
1564072575218.75,0,0,0,0,0,0,0,0
1564072575250,0,0,0,1,0,0,0,0
1564072575281.25,0,0,0,1,0,0,0,0
1564072575312.5,0,0,0,1,0,0,0,0
1564072575343.75,0,0,0,1,0,0,0,0
1564072575375,0,0,0,1,0,0,0,0
1564072575406.25,0,0,0,1,0,0,0,0
1564072575437.5,0,0,0,1,0,0,0,0
1564072575468.75,0,0,0,1,0,0,0,0
1564072575500,0,0,0,1,0,0,0,0
1564072575531.25,0,0,0,1,0,0,0,0
1564072575562.5,0,0,0,1,0,0,0,0
1564072575593.75,0,0,0,1,0,0,0,0
1564072575625,0,0,0,1,0,0,0,0
1564072575656.25,0,0,0,1,0,0,0,0
1564072575687.5,0,0,0,1,0,0,0,0
1564072575718.75,0,0,0,1,0,0,0,0
1564072575750,0,0,0,1,0,0,0,0
1564072575781.25,0,0,0,1,0,0,0,0
1564072575812.5,0,0,0,1,0,0,0,0
1564072575843.75,0,0,0,1,0,0,0,0
1564072575875,0,0,0,0,0,0,0,0
1564072575906.25,0,0,0,0,0,0,0,0
1564072575937.5,0,0,0,0,0,0,0,0
1564072575968.75,0,0,0,0,0,0,0,0
1564072576000,0,0,0,0,0,0,0,0
1564072576031.25,0,0,0,0,0,0,0,0
1564072576062.5,0,0,0,0,0,0,0,0
1564072576093.75,0,0,0,0,0,0,0,0
1564072576125,0,0,0,0,0,0,0,0
1564072576156.25,0,0,0,0,0,0,0,0
1564072576187.5,0,0,0,0,0,0,0,0
1564072576218.75,0,0,0,0,0,0,0,0
1564072576250,0,0,0,0,0,0,0,0
1564072576281.25,0,0,0,0,0,0,0,0
1564072576312.5,0,0,0,0,0,0,0,0
1564072576343.75,0,0,0,0,0,0,0,0
1564072576375,0,0,0,0,0,0,0,0
1564072576406.25,0,0,0,0,0,0,0,0
1564072576437.5,0,0,0,0,0,0,0,0
1564072576468.75,0,0,0,0,0,0,0,0
1564072576500,0,0,0,0,0,0,0,0
1564072576531.25,0,0,0,0,0,0,0,0
1564072576562.5,0,0,0,0,0,0,0,0
1564072576593.75,0,0,0,0,0,0,0,0
1564072576625,0,0,0,0,0,0,0,0
1564072576656.25,0,0,0,0,0,0,0,0
1564072576687.5,0,0,0,0,0,0,0,0
1564072576718.75,0,0,0,0,0,0,0,0
1564072576750,0,0,0,0,0,0,0,0
1564072576781.25,0,0,0,0,0,0,0,0
1564072576812.5,0,0,0,0,0,0,0,0
1564072576843.75,0,0,0,0,0,0,0,0
1564072576875,0,0,0,0,0,0,0,0
1564072576906.25,0,0,0,0,0,0,0,0
1564072576937.5,0,0,0,0,0,0,0,0
1564072576968.75,0,0,0,0,0,0,0,0
1564072577000,0,0,0,0,0,0,0,0
1564072577031.25,0,0,0,0,0,0,0,0
1564072577062.5,0,0,0,0,0,0,0,0
1564072577093.75,0,0,0,0,0,0,0,0
1564072577125,0,0,0,0,0,0,0,0
1564072577156.25,0,0,0,0,0,0,0,0
1564072577187.5,0,0,0,0,0,0,0,0
1564072577218.75,0,0,0,0,0,0,0,0
1564072577250,0,0,0,0,0,0,0,0
1564072577281.25,0,0,0,0,0,0,0,0
1564072577312.5,0,0,0,0,0,0,0,0
1564072577343.75,0,0,0,0,0,0,0,0
1564072577375,0,0,0,0,0,0,0,0
1564072577406.25,0,0,0,0,0,0,0,0
1564072577437.5,0,0,0,0,0,0,0,0
1564072577468.75,0,0,0,0,0,0,0,0
1564072577500,0,0,0,0,0,0,0,0
1564072577531.25,0,0,0,0,0,0,0,0
1564072577562.5,0,0,0,0,0,0,0,0
1564072577593.75,0,0,0,0,0,0,0,0
1564072577625,0,0,0,0,0,0,0,0
1564072577656.25,0,0,0,0,0,0,0,0
1564072577687.5,0,0,0,0,0,0,0,0
1564072577718.75,0,0,0,0,0,0,0,0
1564072577750,0,0,0,0,0,0,0,0
1564072577781.25,0,0,0,0,0,0,0,0
1564072577812.5,0,0,0,0,0,0,0,0
1564072577843.75,0,0,0,0,0,0,0,0
1564072577875,0,0,0,0,0,0,0,0
1564072577906.25,0,0,0,0,0,0,0,0
1564072577937.5,0,0,0,0,0,0,0,0
1564072577968.75,0,0,0,0,0,0,0,0
1564072578000,0,0,0,0,0,0,0,0
1564072578031.25,0,0,0,0,0,0,0,0
1564072578062.5,0,0,0,0,0,0,0,0
1564072578093.75,0,0,0,0,0,0,0,0
1564072578125,0,0,0,0,0,0,0,0
1564072578156.25,0,0,0,0,0,0,0,0
1564072578187.5,0,0,0,0,0,0,0,0
1564072578218.75,0,0,0,0,0,0,0,0
1564072578250,0,0,0,0,0,0,0,0
1564072578281.25,0,0,0,0,0,0,0,0
1564072578312.5,0,0,0,0,0,0,0,0
1564072578343.75,0,0,0,0,0,0,0,0
1564072578375,0,0,0,0,0,0,0,0
1564072578406.25,0,0,0,0,0,0,0,0
1564072578437.5,0,0,0,0,0,0,0,0
1564072578468.75,0,0,0,0,0,0,0,0
1564072578500,0,0,0,0,0,0,0,0
1564072578531.25,0,0,0,0,0,0,0,0
1564072578562.5,0,0,0,0,0,0,0,0
1564072578593.75,0,0,0,0,0,0,0,0
1564072578625,0,0,0,0,0,0,0,0
1564072578656.25,0,0,0,0,0,0,0,0
1564072578687.5,0,0,0,0,0,0,0,0
1564072578718.75,0,0,0,0,0,0,0,0
1564072578750,0,0,0,0,0,0,0,0
1564072578781.25,0,0,0,0,0,0,0,0
1564072578812.5,0,0,0,0,0,0,0,0
1564072578843.75,0,0,0,0,0,0,0,0
1564072578875,0,0,0,0,0,0,0,0
1564072578906.25,0,0,0,0,0,0,0,0
1564072578937.5,0,0,0,0,0,0,0,0
1564072578968.75,0,0,0,0,0,0,0,0
1564072579000,0,0,0,0,0,0,0,0
1564072579031.25,0,0,0,0,0,0,0,0
1564072579062.5,0,0,0,0,0,0,0,0
1564072579093.75,0,0,0,0,0,0,0,0
1564072579125,0,0,0,0,0,0,0,0
1564072579156.25,0,0,0,0,0,0,0,0
1564072579187.5,0,0,0,0,0,0,0,0
1564072579218.75,0,0,0,0,0,0,0,0
1564072579250,0,0,0,0,0,0,0,0
1564072579281.25,0,0,0,0,0,0,0,0
1564072579312.5,0,0,0,0,0,0,0,0
1564072579343.75,0,0,0,0,0,0,0,0
1564072579375,0,0,0,0,0,0,0,0
1564072579406.25,0,0,0,0,0,0,0,0
1564072579437.5,0,0,0,0,0,0,0,0
1564072579468.75,0,0,0,0,0,0,0,0
1564072579500,0,0,0,0,0,0,0,0
1564072579531.25,0,0,0,0,0,0,0,0
1564072579562.5,0,0,0,0,0,0,0,0
1564072579593.75,0,0,0,0,0,0,0,0
1564072579625,0,0,0,0,0,0,0,0
1564072579656.25,0,0,0,0,0,0,0,0
1564072579687.5,0,0,0,0,0,0,0,0
1564072579718.75,0,0,0,0,0,0,0,0
1564072579750,0,0,0,0,0,0,0,0
1564072579781.25,0,0,0,0,0,0,0,0
1564072579812.5,0,0,0,0,0,0,0,0
1564072579843.75,0,0,0,0,0,0,0,0
1564072579875,0,0,0,0,0,0,0,0
1564072579906.25,0,0,0,0,0,0,0,0
1564072579937.5,0,0,0,0,0,0,0,0
1564072579968.75,0,0,0,0,0,0,0,0
1564072580000,-34,-18,43,0,0,0,0,0
1564072580031.25,-24,-5,34,0,0,0,0,0
1564072580062.5,-28,6,24,0,0,0,0,0
1564072580093.75,-56,4,4,0,0,0,0,0
1564072580125,-74,2,0,0,0,0,0,0
1564072580156.25,-93,5,-11,0,0,0,0,0
1564072580187.5,-119,12,-5,0,0,0,0,0
1564072580218.75,-82,-10,27,0,0,0,0,0
1564072580250,-30,-34,74,0,0,0,0,0
1564072580281.25,-35,-33,68,0,0,0,0,0
1564072580312.5,-71,-33,34,0,0,0,0,0
1564072580343.75,-75,-30,26,0,0,0,0,0
1564072580375,-81,-28,14,0,0,0,0,0
1564072580406.25,-80,-31,10,0,0,0,0,0
1564072580437.5,-65,-33,10,0,0,0,0,0
1564072580468.75,-47,-29,12,0,0,0,0,0
1564072580500,-22,-21,16,0,0,0,0,0
1564072580531.25,-21,-17,17,0,0,0,0,0
1564072580562.5,-25,-17,17,0,0,0,0,0
1564072580593.75,-41,-20,10,0,0,0,0,0
1564072580625,-55,-22,3,0,0,0,0,0
1564072580656.25,-82,-21,-22,0,0,0,0,0
1564072580687.5,-96,-20,-38,0,0,0,0,0
1564072580718.75,-49,-30,7,0,0,0,0,0
1564072580750,-25,-32,61,0,0,0,0,0
1564072580781.25,-37,-24,88,0,0,0,0,0
1564072580812.5,-21,-26,94,0,0,0,0,0
1564072580843.75,-4,-17,54,0,0,0,0,0
1564072580875,-36,-21,12,0,0,0,0,0
1564072580906.25,-128,-6,-11,0,0,0,0,0
1564072580937.5,-51,27,21,0,0,0,0,0
1564072580968.75,-57,28,25,0,0,0,0,0
1564072581000,-66,9,26,0,0,0,0,0
1564072581031.25,-65,-2,33,0,0,0,0,0
1564072581062.5,-62,-18,54,0,0,0,0,0
1564072581093.75,-68,-21,53,0,0,0,0,0
1564072581125,-79,-21,22,0,0,0,0,0
1564072581156.25,-92,-21,-3,0,0,0,0,0
1564072581187.5,-110,-19,-26,0,0,0,0,0
1564072581218.75,-103,-23,-21,0,0,0,0,0
1564072581250,-58,-35,20,0,0,0,0,0
1564072581281.25,-43,-38,35,0,0,0,0,0
1564072581312.5,-32,-28,21,0,0,0,0,0
1564072581343.75,-38,-21,4,0,0,0,0,0
1564072581375,-43,-22,-4,0,0,0,0,0
1564072581406.25,-49,-24,-10,0,0,0,0,0
1564072581437.5,-45,-24,-7,0,0,0,0,0
1564072581468.75,-41,-20,-12,0,0,0,0,0
1564072581500,-45,-19,-17,0,0,0,0,0
1564072581531.25,-30,-27,14,0,0,0,0,0
1564072581562.5,-34,-34,45,0,0,0,0,0
1564072581593.75,-42,-35,83,0,0,0,0,0
1564072581625,-45,-35,84,0,0,0,0,0
1564072581656.25,-40,-37,41,0,0,0,0,0
1564072581687.5,-70,-46,20,0,0,0,0,0
1564072581718.75,-109,-33,17,0,0,0,0,0
1564072581750,-65,6,35,0,0,0,0,0
1564072581781.25,-49,13,40,0,0,0,0,0
1564072581812.5,-44,11,32,0,0,0,0,0
1564072581843.75,-48,7,28,0,0,0,0,0
1564072581875,-57,-11,24,0,0,0,0,0
1564072581906.25,-58,-18,32,0,0,0,0,0
1564072581937.5,-64,-29,48,0,0,0,0,0
1564072581968.75,-63,-26,51,0,0,0,0,0
1564072582000,-55,-14,44,0,0,0,0,0
1564072582031.25,-47,-6,39,0,0,0,0,0
1564072582062.5,-49,6,24,0,0,0,0,0
1564072582093.75,-53,6,14,0,0,0,0,0
1564072582125,-110,-16,-18,0,0,0,0,0
1564072582156.25,-125,-31,-27,0,0,0,0,0
1564072582187.5,-90,-56,-4,0,0,0,0,0
1564072582218.75,-31,-70,59,0,0,0,0,0
1564072582250,-27,-60,57,0,0,0,0,0
1564072582281.25,-11,-39,36,0,0,0,0,0
1564072582312.5,-18,-32,23,0,0,0,0,0
1564072582343.75,-37,-19,6,0,0,0,0,0
1564072582375,-61,-20,-4,0,0,0,0,0
1564072582406.25,-49,-12,-10,0,0,0,0,0
1564072582437.5,-40,-6,-18,0,0,0,0,0
1564072582468.75,-44,10,-52,0,0,0,0,0
1564072582500,-42,14,-53,0,0,0,0,0
1564072582531.25,-41,-10,34,0,0,0,0,0
1564072582562.5,-34,-9,79,0,0,0,0,0
1564072582593.75,-13,-11,69,0,0,0,0,0
1564072582625,-26,-16,27,0,0,0,0,0
1564072582656.25,-90,-11,-16,0,0,0,0,0
1564072582687.5,-128,-55,2,0,0,0,0,0
1564072582718.75,-112,-42,29,0,0,0,0,0
1564072582750,-52,-33,51,0,0,0,0,0
1564072582781.25,-61,-35,54,0,0,0,0,0
1564072582812.5,-60,-22,53,0,0,0,0,0
1564072582843.75,-71,-5,44,0,0,0,0,0
1564072582875,-84,0,20,0,0,0,0,0
1564072582906.25,-59,-5,13,0,0,0,0,0
1564072582937.5,-23,13,17,0,0,0,0,0
1564072582968.75,-26,14,9,0,0,0,0,0
1564072583000,-85,-25,-11,0,0,0,0,0
1564072583031.25,-52,-69,36,0,0,0,0,0
1564072583062.5,-35,-70,49,0,0,0,0,0
1564072583093.75,-32,-54,42,0,0,0,0,0
1564072583125,-40,-41,23,0,0,0,0,0
1564072583156.25,-69,-30,-12,0,0,0,0,0
1564072583187.5,-50,-29,-12,0,0,0,0,0
1564072583218.75,-45,-18,-34,0,0,0,0,0
1564072583250,-46,-8,-51,0,0,0,0,0
1564072583281.25,-41,-5,-34,0,0,0,0,0
1564072583312.5,-27,2,13,0,0,0,0,0
1564072583343.75,-65,3,30,0,0,0,0,0
1564072583375,-70,0,34,0,0,0,0,0
1564072583406.25,-48,-27,34,0,0,0,0,0
1564072583437.5,-112,-45,7,0,0,0,0,0
1564072583468.75,-128,-40,4,0,0,0,0,0
1564072583500,-107,-3,-3,0,0,0,0,0
1564072583531.25,-96,-12,3,0,0,0,0,0
1564072583562.5,-2,-38,102,0,0,0,0,0
1564072583593.75,-10,-43,115,0,0,0,0,0
1564072583625,-46,-13,53,0,0,0,0,0
1564072583656.25,-47,2,28,0,0,0,0,0
1564072583687.5,-26,22,8,0,0,0,0,0
1564072583718.75,-34,25,-6,0,0,0,0,0
1564072583750,-54,0,-12,0,0,0,0,0
1564072583781.25,-91,-27,-14,0,0,0,0,0
1564072583812.5,-49,-42,10,0,0,0,0,0
1564072583843.75,-6,-42,18,0,0,0,0,0
1564072583875,-16,-40,13,0,0,0,0,0
1564072583906.25,-41,-34,-4,0,0,0,0,0
1564072583937.5,-56,-30,-8,0,0,0,0,0
1564072583968.75,-44,-26,23,0,0,0,0,0
1564072584000,-29,-15,53,0,0,0,0,0
1564072584031.25,-66,5,30,0,0,0,0,0
1564072584062.5,-112,2,13,0,0,0,0,0
1564072584093.75,-128,-29,-24,0,0,0,0,0
1564072584125,-128,-51,-4,0,0,0,0,0
1564072584156.25,-54,-52,67,0,0,0,0,0
1564072584187.5,-34,-28,65,0,0,0,0,0
1564072584218.75,-12,-11,42,0,0,0,0,0
1564072584250,-22,-2,12,0,0,0,0,0
1564072584281.25,-26,0,6,0,0,0,0,0
1564072584312.5,-39,3,-4,0,0,0,0,0
1564072584343.75,-41,1,-8,0,0,0,0,0
1564072584375,-48,-4,-4,0,0,0,0,0
1564072584406.25,-59,-8,3,0,0,0,0,0
1564072584437.5,-64,-11,20,0,0,0,0,0
1564072584468.75,-65,-8,20,0,0,0,0,0
1564072584500,-83,-7,9,0,0,0,0,0
1564072584531.25,-85,-8,2,0,0,0,0,0
1564072584562.5,-89,-11,-2,0,0,0,0,0
1564072584593.75,-87,-16,1,0,0,0,0,0
1564072584625,-66,-22,12,0,0,0,0,0
1564072584656.25,-47,-12,15,0,0,0,0,0
1564072584687.5,-42,-8,13,0,0,0,0,0
1564072584718.75,-42,-5,5,0,0,0,0,0
1564072584750,-48,-6,4,0,0,0,0,0
1564072584781.25,-54,-14,10,0,0,0,0,0
1564072584812.5,-55,-19,13,0,0,0,0,0
1564072584843.75,-61,-32,10,0,0,0,0,0
1564072584875,-57,-37,6,0,0,0,0,0
1564072584906.25,-59,-42,2,0,0,0,0,0
1564072584937.5,-60,-37,2,0,0,0,0,0
1564072584968.75,-57,-30,22,0,0,0,0,0
1564072585000,-62,-25,43,0,0,0,0,0
1564072585031.25,-60,-22,51,0,0,0,0,0
1564072585062.5,-50,-5,25,0,0,0,0,0
1564072585093.75,-54,-3,13,0,0,0,0,0
1564072585125,-62,-2,9,0,0,0,0,0
1564072585156.25,-68,3,12,0,0,0,0,0
1564072585187.5,-82,12,12,0,0,0,0,0
1564072585218.75,-83,5,19,0,0,0,0,0
1564072585250,-64,-13,35,0,0,0,0,0
1564072585281.25,-57,-20,38,0,0,0,0,0
1564072585312.5,-56,-20,36,0,0,0,0,0
1564072585343.75,-69,-16,28,0,0,0,0,0
1564072585375,-88,-13,8,0,0,0,0,0
1564072585406.25,-90,-11,0,0,0,0,0,0
1564072585437.5,-93,-22,-8,0,0,0,0,0
1564072585468.75,-59,-32,1,0,0,0,0,0
1564072585500,-52,-30,2,0,0,0,0,0
1564072585531.25,-41,-24,3,0,0,0,0,0
1564072585562.5,-36,-20,3,0,0,0,0,0
1564072585593.75,-30,-13,3,0,0,0,0,0
1564072585625,-35,-13,3,0,0,0,0,0
1564072585656.25,-51,-19,0,0,0,0,0,0
1564072585687.5,-57,-23,-3,0,0,0,0,0
1564072585718.75,-64,-28,-7,0,0,0,0,0
1564072585750,-60,-30,-5,0,0,0,0,0
1564072585781.25,-64,-44,8,0,0,0,0,0
1564072585812.5,-60,-48,24,0,0,0,0,0
1564072585843.75,-67,-45,38,0,0,0,0,0
1564072585875,-65,-37,51,0,0,0,0,0
1564072585906.25,-43,-32,42,0,0,0,0,0
1564072585937.5,-47,-14,15,0,0,0,0,0
1564072585968.75,-57,-8,13,0,0,0,0,0
1564072586000,-63,6,17,0,0,0,0,0
1564072586031.25,-66,10,17,0,0,0,0,0
1564072586062.5,-67,8,18,0,0,0,0,0
1564072586093.75,-67,5,20,0,0,0,0,0
1564072586125,-64,-2,32,0,0,0,0,0
1564072586156.25,-66,-9,38,0,0,0,0,0
1564072586187.5,-69,-23,38,0,0,0,0,0
1564072586218.75,-76,-22,34,0,0,0,0,0
1564072586250,-73,-13,17,0,0,0,0,0
1564072586281.25,-79,-11,10,0,0,0,0,0
1564072586312.5,-89,-22,-2,0,0,0,0,0
1564072586343.75,-82,-38,-4,0,0,0,0,0
1564072586375,-70,-39,-3,0,0,0,0,0
1564072586406.25,-37,-25,3,0,0,0,0,0
1564072586437.5,-30,-19,3,0,0,0,0,0
1564072586468.75,-34,-22,9,0,0,0,0,0
1564072586500,-39,-24,13,0,0,0,0,0
1564072586531.25,-49,-30,6,0,0,0,0,0
1564072586562.5,-52,-31,1,0,0,0,0,0
1564072586593.75,-55,-29,-8,0,0,0,0,0
1564072586625,-55,-28,-14,0,0,0,0,0
1564072586656.25,-62,-28,-9,0,0,0,0,0
1564072586687.5,-59,-32,21,0,0,0,0,0
1564072586718.75,-62,-36,61,0,0,0,0,0
1564072586750,-30,-28,68,0,0,0,0,0
1564072586781.25,-21,-22,49,0,0,0,0,0
1564072586812.5,-50,-24,6,0,0,0,0,0
1564072586843.75,-76,-22,0,0,0,0,0,0
1564072586875,-67,2,10,0,0,0,0,0
1564072586906.25,-67,9,7,0,0,0,0,0
1564072586937.5,-70,7,14,0,0,0,0,0
1564072586968.75,-70,-3,24,0,0,0,0,0
1564072587000,-55,-22,49,0,0,0,0,0
1564072587031.25,-51,-26,56,0,0,0,0,0
1564072587062.5,-70,-19,39,0,0,0,0,0
1564072587093.75,-81,-22,29,0,0,0,0,0
1564072587125,-80,-22,17,0,0,0,0,0
1564072587156.25,-89,-31,8,0,0,0,0,0
1564072587187.5,-80,-37,9,0,0,0,0,0
1564072587218.75,-56,-38,13,0,0,0,0,0
1564072587250,-50,-32,11,0,0,0,0,0
1564072587281.25,-33,-18,3,0,0,0,0,0
1564072587312.5,-32,-14,-2,0,0,0,0,0
1564072587343.75,-42,-12,-8,0,0,0,0,0
1564072587375,-49,-15,-9,0,0,0,0,0
1564072587406.25,-62,-25,-11,0,0,0,0,0
1564072587437.5,-67,-28,-14,0,0,0,0,0
1564072587468.75,-58,-27,-22,0,0,0,0,0
1564072587500,-60,-38,2,0,0,0,0,0
1564072587531.25,-44,-36,23,0,0,0,0,0
1564072587562.5,-54,-29,45,0,0,0,0,0
1564072587593.75,-62,-29,60,0,0,0,0,0
1564072587625,-69,-21,60,0,0,0,0,0
1564072587656.25,-64,-12,38,0,0,0,0,0
1564072587687.5,-69,-6,25,0,0,0,0,0
1564072587718.75,-79,16,22,0,0,0,0,0
1564072587750,-42,19,35,0,0,0,0,0
1564072587781.25,-49,19,27,0,0,0,0,0
1564072587812.5,-51,8,21,0,0,0,0,0
1564072587843.75,-42,3,26,0,0,0,0,0
1564072587875,-40,-1,36,0,0,0,0,0
1564072587906.25,-58,-3,35,0,0,0,0,0
1564072587937.5,-87,-6,10,0,0,0,0,0
1564072587968.75,-93,-9,-5,0,0,0,0,0
1564072588000,-89,-5,-7,0,0,0,0,0
1564072588031.25,-85,-5,-5,0,0,0,0,0
1564072588062.5,-80,-10,-2,0,0,0,0,0
1564072588093.75,-68,-19,2,0,0,0,0,0
1564072588125,-59,-17,3,0,0,0,0,0
1564072588156.25,-42,-10,4,0,0,0,0,0
1564072588187.5,-39,-8,3,0,0,0,0,0
1564072588218.75,-40,-6,3,0,0,0,0,0
1564072588250,-44,-3,0,0,0,0,0,0
1564072588281.25,-54,1,-8,0,0,0,0,0
1564072588312.5,-74,-11,-10,0,0,0,0,0
1564072588343.75,-61,-26,18,0,0,0,0,0
1564072588375,-49,-22,61,0,0,0,0,0
1564072588406.25,-58,-14,61,0,0,0,0,0
1564072588437.5,-92,-5,40,0,0,0,0,0
1564072588468.75,-92,-8,36,0,0,0,0,0
1564072588500,-74,-11,34,0,0,0,0,0
1564072588531.25,-57,-8,32,0,0,0,0,0
1564072588562.5,-33,3,23,0,0,0,0,0
1564072588593.75,-33,7,15,0,0,0,0,0
1564072588625,-40,10,3,0,0,0,0,0
1564072588656.25,-40,12,1,0,0,0,0,0
1564072588687.5,-47,3,14,0,0,0,0,0
1564072588718.75,-56,0,18,0,0,0,0,0
1564072588750,-79,-6,19,0,0,0,0,0
1564072588781.25,-77,-16,35,0,0,0,0,0
1564072588812.5,-74,-13,39,0,0,0,0,0
1564072588843.75,-58,4,23,0,0,0,0,0
1564072588875,-50,15,15,0,0,0,0,0
1564072588906.25,-68,6,-3,0,0,0,0,0
1564072588937.5,-80,-5,-6,0,0,0,0,0
1564072588968.75,-65,-21,10,0,0,0,0,0
1564072589000,-52,-22,18,0,0,0,0,0
1564072589031.25,-43,-22,12,0,0,0,0,0
1564072589062.5,-42,-22,22,0,0,0,0,0
1564072589093.75,-33,-22,43,0,0,0,0,0
1564072589125,-39,-23,36,0,0,0,0,0
1564072589156.25,-67,-33,16,0,0,0,0,0
1564072589187.5,-68,-37,-1,0,0,0,0,0
1564072589218.75,-78,-28,-27,0,0,0,0,0
1564072589250,-61,-28,3,0,0,0,0,0
1564072589281.25,-38,-56,73,0,0,0,0,0
1564072589312.5,-37,-22,44,0,0,0,0,0
1564072589343.75,-40,-17,53,0,0,0,0,0
1564072589375,-29,-10,37,0,0,0,0,0
1564072589406.25,-90,-50,11,0,0,0,0,0
1564072589437.5,-44,16,81,0,0,0,0,0
1564072589468.75,-43,5,65,0,0,0,0,0
1564072589500,-63,-1,36,0,0,0,0,0
1564072589531.25,-53,-9,38,0,0,0,0,0
1564072589562.5,-65,-24,26,0,0,0,0,0
1564072589593.75,-54,-28,31,0,0,0,0,0
1564072589625,-56,-25,28,0,0,0,0,0
1564072589656.25,-47,-6,19,0,0,0,0,0
1564072589687.5,-43,3,18,0,0,0,0,0
1564072589718.75,-46,14,7,0,0,0,0,0
1564072589750,-86,5,-6,0,0,0,0,0
1564072589781.25,-107,-28,8,0,0,0,0,0
1564072589812.5,-80,-37,28,0,0,0,0,0
1564072589843.75,-39,-38,45,0,0,0,0,0
1564072589875,-25,-32,43,0,0,0,0,0
1564072589906.25,-33,-28,26,0,0,0,0,0
1564072589937.5,-49,-28,10,0,0,0,0,0
1564072589968.75,-67,-35,-9,0,0,0,0,0
1564072590000,-81,-30,-49,0,0,0,0,0
1564072590031.25,-64,-26,-53,0,0,0,0,0
1564072590062.5,-17,-38,42,0,0,0,0,0
1564072590093.75,4,-36,62,0,0,0,0,0
1564072590125,-24,-31,36,0,0,0,0,0
1564072590156.25,12,-23,55,0,0,0,0,0
1564072590187.5,10,-56,58,0,0,0,0,0
1564072590218.75,-102,-71,17,0,0,0,0,0
1564072590250,-114,-52,22,0,0,0,0,0
1564072590281.25,-56,-40,50,0,0,0,0,0
1564072590312.5,-20,-62,106,0,0,0,0,0
1564072590343.75,-44,-75,96,0,0,0,0,0
1564072590375,-122,-56,-2,0,0,0,0,0
1564072590406.25,-96,-44,9,0,0,0,0,0
1564072590437.5,-18,-19,30,0,0,0,0,0
1564072590468.75,-1,14,10,0,0,0,0,0
1564072590500,6,30,12,0,0,0,0,0
1564072590531.25,5,42,4,0,0,0,0,0
1564072590562.5,8,39,5,0,0,0,0,0
1564072590593.75,-128,-43,-87,0,0,0,0,0
1564072590625,-128,-83,-125,0,0,0,0,0
1564072590656.25,114,-100,71,0,0,0,0,0
1564072590687.5,108,-91,101,0,0,0,0,0
1564072590718.75,-56,-42,-61,0,0,0,0,0
1564072590750,-111,-25,-75,0,0,0,0,0
1564072590781.25,-6,-25,-13,0,0,0,0,0
1564072590812.5,15,-22,-1,0,0,0,0,0
1564072590843.75,6,-30,7,0,0,0,0,0
1564072590875,-60,-54,-6,0,0,0,0,0
1564072590906.25,-127,-69,-12,0,0,0,0,0
1564072590937.5,-111,-68,87,0,0,0,0,0
1564072590968.75,-68,-65,112,0,0,0,0,0
1564072591000,-72,-44,36,0,0,0,0,0
1564072591031.25,-81,-24,14,0,0,0,0,0
1564072591062.5,-57,3,15,0,0,0,0,0
1564072591093.75,-42,10,15,0,0,0,0,0
1564072591125,-28,17,6,0,0,0,0,0
1564072591156.25,-33,15,8,0,0,0,0,0
1564072591187.5,-57,-2,29,0,0,0,0,0
1564072591218.75,-89,-12,29,0,0,0,0,0
1564072591250,-110,-31,24,0,0,0,0,0
1564072591281.25,-96,-42,24,0,0,0,0,0
1564072591312.5,-90,-41,22,0,0,0,0,0
1564072591343.75,-83,-27,5,0,0,0,0,0
1564072591375,-80,-23,0,0,0,0,0,0
1564072591406.25,-87,-32,1,0,0,0,0,0
1564072591437.5,-74,-41,8,0,0,0,0,0
1564072591468.75,-54,-52,9,0,0,0,0,0
1564072591500,-50,-53,9,0,0,0,0,0
1564072591531.25,-37,-45,6,0,0,0,0,0
1564072591562.5,-36,-41,5,0,0,0,0,0
1564072591593.75,-36,-38,2,0,0,0,0,0
1564072591625,-33,-38,-2,0,0,0,0,0
1564072591656.25,-33,-40,1,0,0,0,0,0
1564072591687.5,-22,-46,17,0,0,0,0,0
1564072591718.75,-19,-48,26,0,0,0,0,0
1564072591750,-24,-53,36,0,0,0,0,0
1564072591781.25,-29,-53,37,0,0,0,0,0
1564072591812.5,-37,-50,35,0,0,0,0,0
1564072591843.75,-40,-48,35,0,0,0,0,0
1564072591875,-58,-50,23,0,0,0,0,0
1564072591906.25,-68,-47,18,0,0,0,0,0
1564072591937.5,-59,-25,26,0,0,0,0,0
1564072591968.75,-59,-14,30,0,0,0,0,0
1564072592000,-63,6,40,0,0,0,0,0
1564072592031.25,-63,6,43,0,0,0,0,0
1564072592062.5,-75,-7,48,0,0,0,0,0
1564072592093.75,-77,-25,49,0,0,0,0,0
1564072592125,-74,-33,48,0,0,0,0,0
1564072592156.25,-75,-51,44,0,0,0,0,0
1564072592187.5,-74,-59,39,0,0,0,0,0
1564072592218.75,-72,-62,30,0,0,0,0,0
1564072592250,-68,-64,24,0,0,0,0,0
1564072592281.25,-67,-63,12,0,0,0,0,0
1564072592312.5,-76,-66,5,0,0,0,0,0
1564072592343.75,-79,-78,6,0,0,0,0,0
1564072592375,-66,-79,10,0,0,0,0,0
1564072592406.25,-50,-67,8,0,0,0,0,0
1564072592437.5,-44,-65,7,0,0,0,0,0
1564072592468.75,-36,-62,3,0,0,0,0,0
1564072592500,-40,-76,5,0,0,0,0,0
1564072592531.25,-39,-79,1,0,0,0,0,0
1564072592562.5,-16,-71,3,0,0,0,0,0
1564072592593.75,-8,-65,8,0,0,0,0,0
1564072592625,-9,-50,8,0,0,0,0,0
1564072592656.25,-13,-41,8,0,0,0,0,0
1564072592687.5,-24,-22,2,0,0,0,0,0
1564072592718.75,-36,-22,7,0,0,0,0,0
1564072592750,-77,-30,28,0,0,0,0,0
1564072592781.25,-86,-37,35,0,0,0,0,0
1564072592812.5,-88,-41,59,0,0,0,0,0
1564072592843.75,-70,-33,66,0,0,0,0,0
1564072592875,-59,-12,46,0,0,0,0,0
1564072592906.25,-68,9,23,0,0,0,0,0
1564072592937.5,-72,19,17,0,0,0,0,0
1564072592968.75,-62,27,23,0,0,0,0,0
1564072593000,-62,25,33,0,0,0,0,0
1564072593031.25,-79,10,41,0,0,0,0,0
1564072593062.5,-85,-1,39,0,0,0,0,0
1564072593093.75,-91,-20,36,0,0,0,0,0
1564072593125,-93,-30,41,0,0,0,0,0
1564072593156.25,-81,-42,35,0,0,0,0,0
1564072593187.5,-89,-40,28,0,0,0,0,0
1564072593218.75,-101,-55,20,0,0,0,0,0
1564072593250,-92,-65,19,0,0,0,0,0
1564072593281.25,-62,-61,10,0,0,0,0,0
1564072593312.5,-48,-54,-20,0,0,0,0,0
1564072593343.75,-33,-56,-30,0,0,0,0,0
1564072593375,-14,-71,-38,0,0,0,0,0
1564072593406.25,-12,-63,-33,0,0,0,0,0
1564072593437.5,-21,-34,-30,0,0,0,0,0
1564072593468.75,-27,-26,-26,0,0,0,0,0
1564072593500,-38,-27,4,0,0,0,0,0
1564072593531.25,-45,-32,27,0,0,0,0,0
1564072593562.5,-73,-57,62,0,0,0,0,0
1564072593593.75,-92,-55,65,0,0,0,0,0
1564072593625,-80,-50,89,0,0,0,0,0
1564072593656.25,-72,-50,94,0,0,0,0,0
1564072593687.5,-68,-38,69,0,0,0,0,0
1564072593718.75,-46,-16,43,0,0,0,0,0
1564072593750,-36,-5,40,0,0,0,0,0
1564072593781.25,-34,2,28,0,0,0,0,0
1564072593812.5,-41,4,20,0,0,0,0,0
1564072593843.75,-43,6,13,0,0,0,0,0
1564072593875,-47,4,13,0,0,0,0,0
1564072593906.25,-75,-15,22,0,0,0,0,0
1564072593937.5,-89,-27,32,0,0,0,0,0
1564072593968.75,-73,-31,28,0,0,0,0,0
1564072594000,-76,-30,28,0,0,0,0,0
1564072594031.25,-81,-32,25,0,0,0,0,0
1564072594062.5,-81,-32,23,0,0,0,0,0
1564072594093.75,-76,-32,21,0,0,0,0,0
1564072594125,-66,-45,27,0,0,0,0,0
1564072594156.25,-63,-52,31,0,0,0,0,0
1564072594187.5,-49,-50,26,0,0,0,0,0
1564072594218.75,-38,-43,20,0,0,0,0,0
1564072594250,-36,-38,12,0,0,0,0,0
1564072594281.25,-35,-38,8,0,0,0,0,0
1564072594312.5,-36,-39,4,0,0,0,0,0
1564072594343.75,-39,-38,4,0,0,0,0,0
1564072594375,-41,-30,8,0,0,0,0,0
1564072594406.25,-39,-25,10,0,0,0,0,0
1564072594437.5,-43,-14,12,0,0,0,0,0
1564072594468.75,-51,-8,16,0,0,0,0,0
1564072594500,-56,-3,36,0,0,0,0,0
1564072594531.25,-92,-12,55,0,0,0,0,0
1564072594562.5,-76,-16,48,0,0,0,0,0
1564072594593.75,-41,-20,43,0,0,0,0,0
1564072594625,-41,-15,39,0,0,0,0,0
1564072594656.25,-49,-1,30,0,0,0,0,0
1564072594687.5,-55,4,25,0,0,0,0,0
1564072594718.75,-59,4,19,0,0,0,0,0
1564072594750,-61,1,19,0,0,0,0,0
1564072594781.25,-63,-8,21,0,0,0,0,0
1564072594812.5,-60,-15,29,0,0,0,0,0
1564072594843.75,-56,-25,45,0,0,0,0,0
1564072594875,-53,-25,46,0,0,0,0,0
1564072594906.25,-69,-21,40,0,0,0,0,0
1564072594937.5,-78,-27,38,0,0,0,0,0
1564072594968.75,-88,-35,32,0,0,0,0,0
1564072595000,-87,-45,23,0,0,0,0,0
1564072595031.25,-73,-45,23,0,0,0,0,0
1564072595062.5,-46,-36,22,0,0,0,0,0
1564072595093.75,-34,-28,18,0,0,0,0,0
1564072595125,-30,-21,7,0,0,0,0,0
1564072595156.25,-36,-20,2,0,0,0,0,0
1564072595187.5,-40,-23,-3,0,0,0,0,0
1564072595218.75,-46,-27,-3,0,0,0,0,0
1564072595250,-54,-31,1,0,0,0,0,0
1564072595281.25,-55,-33,5,0,0,0,0,0
1564072595312.5,-48,-29,14,0,0,0,0,0
1564072595343.75,-49,-23,28,0,0,0,0,0
1564072595375,-49,-20,40,0,0,0,0,0
1564072595406.25,-67,-27,56,0,0,0,0,0
1564072595437.5,-72,-29,57,0,0,0,0,0
1564072595468.75,-57,-26,51,0,0,0,0,0
1564072595500,-44,-22,47,0,0,0,0,0
1564072595531.25,-28,-9,38,0,0,0,0,0
1564072595562.5,-28,-3,32,0,0,0,0,0
1564072595593.75,-48,5,19,0,0,0,0,0
1564072595625,-62,6,13,0,0,0,0,0
1564072595656.25,-83,-2,4,0,0,0,0,0
1564072595687.5,-84,-9,8,0,0,0,0,0
1564072595718.75,-53,-24,40,0,0,0,0,0
1564072595750,-41,-30,63,0,0,0,0,0
1564072595781.25,-50,-23,57,0,0,0,0,0
1564072595812.5,-67,-13,31,0,0,0,0,0
1564072595843.75,-75,-9,21,0,0,0,0,0
1564072595875,-92,-13,8,0,0,0,0,0
1564072595906.25,-92,-24,8,0,0,0,0,0
1564072595937.5,-77,-45,20,0,0,0,0,0
1564072595968.75,-55,-46,28,0,0,0,0,0
1564072596000,-27,-33,31,0,0,0,0,0
1564072596031.25,-26,-27,27,0,0,0,0,0
1564072596062.5,-45,-29,22,0,0,0,0,0
1564072596093.75,-52,-32,18,0,0,0,0,0
1564072596125,-64,-35,7,0,0,0,0,0
1564072596156.25,-58,-30,7,0,0,0,0,0
1564072596187.5,-50,-25,8,0,0,0,0,0
1564072596218.75,-53,-18,19,0,0,0,0,0
1564072596250,-45,-15,33,0,0,0,0,0
1564072596281.25,-38,-8,46,0,0,0,0,0
1564072596312.5,-39,-8,46,0,0,0,0,0
1564072596343.75,-44,-11,45,0,0,0,0,0
1564072596375,-43,-11,37,0,0,0,0,0
1564072596406.25,-38,-5,24,0,0,0,0,0
1564072596437.5,-40,-1,20,0,0,0,0,0
1564072596468.75,-61,6,12,0,0,0,0,0
1564072596500,-73,8,8,0,0,0,0,0
1564072596531.25,-89,2,14,0,0,0,0,0
1564072596562.5,-63,-14,64,0,0,0,0,0
1564072596593.75,-58,-19,73,0,0,0,0,0
1564072596625,-59,-1,42,0,0,0,0,0
1564072596656.25,-62,8,19,0,0,0,0,0
1564072596687.5,-68,17,-6,0,0,0,0,0
1564072596718.75,-72,13,-14,0,0,0,0,0
1564072596750,-72,-2,-25,0,0,0,0,0
1564072596781.25,-96,-14,-34,0,0,0,0,0
1564072596812.5,-95,-41,-18,0,0,0,0,0
1564072596843.75,-60,-48,11,0,0,0,0,0
1564072596875,-30,-38,43,0,0,0,0,0
1564072596906.25,-36,-26,32,0,0,0,0,0
1564072596937.5,-74,-15,-5,0,0,0,0,0
1564072596968.75,-113,-19,-34,0,0,0,0,0
1564072597000,-57,-8,-74,0,0,0,0,0
1564072597031.25,-33,-23,-45,0,0,0,0,0
1564072597062.5,26,-17,29,0,0,0,0,0
1564072597093.75,12,-9,67,0,0,0,0,0
1564072597125,8,-6,53,0,0,0,0,0
1564072597156.25,32,9,43,0,0,0,0,0
1564072597187.5,34,-11,32,0,0,0,0,0
1564072597218.75,-99,-14,-21,0,0,0,0,0
1564072597250,-128,-29,-29,0,0,0,0,0
1564072597281.25,-128,-32,-19,0,0,0,0,0
1564072597312.5,-128,-17,-29,0,0,0,0,0
1564072597343.75,-28,-19,55,0,0,0,0,0
1564072597375,26,-31,125,0,0,0,0,0
1564072597406.25,7,9,58,0,0,0,0,0
1564072597437.5,-12,31,-28,0,0,0,0,0
1564072597468.75,-2,26,-53,0,0,0,0,0
1564072597500,-128,-21,-128,0,0,0,0,0
1564072597531.25,-128,-32,-114,0,0,0,0,0
1564072597562.5,-36,-60,-66,0,0,0,0,0
1564072597593.75,72,-45,15,0,0,0,0,0
1564072597625,8,-59,42,0,0,0,0,0
1564072597656.25,4,-46,11,0,0,0,0,0
1564072597687.5,-55,-22,-41,0,0,0,0,0
1564072597718.75,-68,-11,-21,0,0,0,0,0
1564072597750,-66,-4,14,0,0,0,0,0
1564072597781.25,-66,-11,34,0,0,0,0,0
1564072597812.5,-62,-28,50,0,0,0,0,0
1564072597843.75,-103,-61,34,0,0,0,0,0
1564072597875,-124,-71,34,0,0,0,0,0
1564072597906.25,-78,-50,52,0,0,0,0,0
1564072597937.5,-41,-23,49,0,0,0,0,0
1564072597968.75,-13,4,33,0,0,0,0,0
1564072598000,-19,9,22,0,0,0,0,0
1564072598031.25,-41,13,2,0,0,0,0,0
1564072598062.5,-52,14,-4,0,0,0,0,0
1564072598093.75,-70,5,-7,0,0,0,0,0
1564072598125,-75,-3,-3,0,0,0,0,0
1564072598156.25,-66,-21,25,0,0,0,0,0
1564072598187.5,-50,-25,43,0,0,0,0,0
1564072598218.75,-58,-36,60,0,0,0,0,0
1564072598250,-74,-48,56,0,0,0,0,0
1564072598281.25,-93,-54,47,0,0,0,0,0
1564072598312.5,-96,-63,32,0,0,0,0,0
1564072598343.75,-71,-56,30,0,0,0,0,0
1564072598375,-27,-34,22,0,0,0,0,0
1564072598406.25,-22,-28,18,0,0,0,0,0
1564072598437.5,-15,-21,11,0,0,0,0,0
1564072598468.75,-15,-19,8,0,0,0,0,0
1564072598500,-33,-20,2,0,0,0,0,0
1564072598531.25,-42,-22,1,0,0,0,0,0
1564072598562.5,-51,-27,6,0,0,0,0,0
1564072598593.75,-52,-26,11,0,0,0,0,0
1564072598625,-49,-20,24,0,0,0,0,0
1564072598656.25,-61,-28,52,0,0,0,0,0
1564072598687.5,-58,-32,69,0,0,0,0,0
1564072598718.75,-54,-41,81,0,0,0,0,0
1564072598750,-48,-45,75,0,0,0,0,0
1564072598781.25,-41,-38,54,0,0,0,0,0
1564072598812.5,-39,-27,44,0,0,0,0,0
1564072598843.75,-31,-8,29,0,0,0,0,0
1564072598875,-35,-2,22,0,0,0,0,0
1564072598906.25,-44,0,15,0,0,0,0,0
1564072598937.5,-51,-2,13,0,0,0,0,0
1564072598968.75,-50,-1,17,0,0,0,0,0
1564072599000,-50,-5,24,0,0,0,0,0
1564072599031.25,-45,-7,32,0,0,0,0,0
1564072599062.5,-44,-19,49,0,0,0,0,0
1564072599093.75,-47,-24,56,0,0,0,0,0
1564072599125,-43,-17,48,0,0,0,0,0
1564072599156.25,-43,-8,41,0,0,0,0,0
1564072599187.5,-81,-13,33,0,0,0,0,0
1564072599218.75,-93,-18,34,0,0,0,0,0
1564072599250,-104,-28,28,0,0,0,0,0
1564072599281.25,-98,-36,25,0,0,0,0,0
1564072599312.5,-64,-49,33,0,0,0,0,0
1564072599343.75,-51,-48,37,0,0,0,0,0
1564072599375,-27,-30,30,0,0,0,0,0
1564072599406.25,-28,-24,25,0,0,0,0,0
1564072599437.5,-39,-20,15,0,0,0,0,0
1564072599468.75,-55,-26,6,0,0,0,0,0
1564072599500,-60,-29,3,0,0,0,0,0
1564072599531.25,-58,-27,0,0,0,0,0,0
1564072599562.5,-55,-22,-4,0,0,0,0,0
1564072599593.75,-54,-15,3,0,0,0,0,0
1564072599625,-49,-11,22,0,0,0,0,0
1564072599656.25,-45,-11,52,0,0,0,0,0
1564072599687.5,-46,-15,57,0,0,0,0,0
1564072599718.75,-37,-14,54,0,0,0,0,0
1564072599750,-33,-9,42,0,0,0,0,0
1564072599781.25,-43,-13,21,0,0,0,0,0
1564072599812.5,-61,-11,20,0,0,0,0,0
1564072599843.75,-81,2,24,0,0,0,0,0
1564072599875,-63,7,35,0,0,0,0,0
1564072599906.25,-58,-2,46,0,0,0,0,0
1564072599937.5,-56,-19,49,0,0,0,0,0
1564072599968.75,-60,-24,43,0,0,0,0,0
1564072600000,-73,-30,24,0,0,0,0,0
1564072600031.25,-74,-29,16,0,0,0,0,0
1564072600062.5,-68,-25,8,0,0,0,0,0
1564072600093.75,-64,-18,11,0,0,0,0,0
1564072600125,-75,-18,7,0,0,0,0,0
1564072600156.25,-78,-23,7,0,0,0,0,0
1564072600187.5,-58,-26,8,0,0,0,0,0
1564072600218.75,-48,-23,8,0,0,0,0,0
1564072600250,-43,-18,13,0,0,0,0,0
1564072600281.25,-43,-18,17,0,0,0,0,0
1564072600312.5,-44,-20,16,0,0,0,0,0
1564072600343.75,-49,-28,12,0,0,0,0,0
1564072600375,-54,-30,10,0,0,0,0,0
1564072600406.25,-61,-31,0,0,0,0,0,0
1564072600437.5,-60,-28,-10,0,0,0,0,0
1564072600468.75,-59,-39,10,0,0,0,0,0
1564072600500,-44,-41,45,0,0,0,0,0
1564072600531.25,-50,-24,51,0,0,0,0,0
1564072600562.5,-46,-22,54,0,0,0,0,0
1564072600593.75,-36,-19,43,0,0,0,0,0
1564072600625,-31,-24,17,0,0,0,0,0
1564072600656.25,-57,-30,-3,0,0,0,0,0
1564072600687.5,-100,-27,-1,0,0,0,0,0
1564072600718.75,-75,-10,28,0,0,0,0,0
1564072600750,-51,-11,40,0,0,0,0,0
1564072600781.25,-36,-14,51,0,0,0,0,0
1564072600812.5,-40,-15,51,0,0,0,0,0
1564072600843.75,-50,-12,46,0,0,0,0,0
1564072600875,-72,-7,18,0,0,0,0,0
1564072600906.25,-89,-8,5,0,0,0,0,0
1564072600937.5,-91,-16,3,0,0,0,0,0
1564072600968.75,-80,-17,8,0,0,0,0,0
1564072601000,-66,-23,24,0,0,0,0,0
1564072601031.25,-58,-29,29,0,0,0,0,0
1564072601062.5,-54,-36,20,0,0,0,0,0
1564072601093.75,-51,-34,13,0,0,0,0,0
1564072601125,-38,-22,5,0,0,0,0,0
1564072601156.25,-36,-19,6,0,0,0,0,0
1564072601187.5,-39,-19,7,0,0,0,0,0
1564072601218.75,-49,-25,7,0,0,0,0,0
1564072601250,-53,-28,4,0,0,0,0,0
1564072601281.25,-63,-29,-7,0,0,0,0,0
1564072601312.5,-63,-28,-13,0,0,0,0,0
1564072601343.75,-51,-39,26,0,0,0,0,0
1564072601375,-44,-40,55,0,0,0,0,0
1564072601406.25,-46,-27,54,0,0,0,0,0
1564072601437.5,-38,-25,51,0,0,0,0,0
1564072601468.75,-24,-26,34,0,0,0,0,0
1564072601500,-79,-34,-1,0,0,0,0,0
1564072601531.25,-125,-25,-9,0,0,0,0,0
1564072601562.5,-91,-4,6,0,0,0,0,0
1564072601593.75,-81,-2,8,0,0,0,0,0
1564072601625,-40,-15,40,0,0,0,0,0
1564072601656.25,-21,-27,70,0,0,0,0,0
1564072601687.5,-24,-28,93,0,0,0,0,0
1564072601718.75,-35,-22,68,0,0,0,0,0
1564072601750,-69,-2,-12,0,0,0,0,0
1564072601781.25,-109,-1,-47,0,0,0,0,0
1564072601812.5,-99,-6,-35,0,0,0,0,0
1564072601843.75,-62,-8,-9,0,0,0,0,0
1564072601875,-8,-33,46,0,0,0,0,0
1564072601906.25,-32,-40,12,0,0,0,0,0
1564072601937.5,-74,-45,-22,0,0,0,0,0
1564072601968.75,-75,-37,-26,0,0,0,0,0
1564072602000,-46,-35,-8,0,0,0,0,0
1564072602031.25,-14,-29,7,0,0,0,0,0
1564072602062.5,-20,-28,-1,0,0,0,0,0
1564072602093.75,-45,-22,-28,0,0,0,0,0
1564072602125,-42,-18,-30,0,0,0,0,0
1564072602156.25,-31,-31,24,0,0,0,0,0
1564072602187.5,-35,-33,59,0,0,0,0,0
1564072602218.75,-47,-29,70,0,0,0,0,0
1564072602250,-52,-35,51,0,0,0,0,0
1564072602281.25,-79,-64,8,0,0,0,0,0
1564072602312.5,-128,-81,-1,0,0,0,0,0
1564072602343.75,-99,-29,31,0,0,0,0,0
1564072602375,-25,-3,46,0,0,0,0,0
1564072602406.25,-11,1,42,0,0,0,0,0
1564072602437.5,-28,4,18,0,0,0,0,0
1564072602468.75,-39,4,6,0,0,0,0,0
1564072602500,-53,1,-2,0,0,0,0,0
1564072602531.25,-62,-7,1,0,0,0,0,0
1564072602562.5,-76,-28,19,0,0,0,0,0
1564072602593.75,-70,-35,31,0,0,0,0,0
1564072602625,-53,-35,48,0,0,0,0,0
1564072602656.25,-58,-37,48,0,0,0,0,0
1564072602687.5,-66,-39,35,0,0,0,0,0
1564072602718.75,-76,-39,26,0,0,0,0,0
1564072602750,-90,-53,18,0,0,0,0,0
1564072602781.25,-66,-62,23,0,0,0,0,0
1564072602812.5,-43,-55,25,0,0,0,0,0
1564072602843.75,-16,-36,22,0,0,0,0,0
1564072602875,-15,-30,19,0,0,0,0,0
1564072602906.25,-18,-24,12,0,0,0,0,0
1564072602937.5,-26,-25,4,0,0,0,0,0
1564072602968.75,-51,-25,-14,0,0,0,0,0
1564072603000,-58,-26,-22,0,0,0,0,0
1564072603031.25,-56,-26,-27,0,0,0,0,0
1564072603062.5,-46,-31,-6,0,0,0,0,0
1564072603093.75,-39,-34,61,0,0,0,0,0
1564072603125,-36,-25,63,0,0,0,0,0
1564072603156.25,-40,-31,51,0,0,0,0,0
1564072603187.5,-105,-57,12,0,0,0,0,0
1564072603218.75,-128,-72,11,0,0,0,0,0
1564072603250,-49,-30,67,0,0,0,0,0
1564072603281.25,-21,-20,55,0,0,0,0,0
1564072603312.5,-15,-8,33,0,0,0,0,0
1564072603343.75,-28,-6,20,0,0,0,0,0
1564072603375,-45,-2,3,0,0,0,0,0
1564072603406.25,-51,-3,-1,0,0,0,0,0
1564072603437.5,-64,-10,-1,0,0,0,0,0
1564072603468.75,-70,-18,5,0,0,0,0,0
1564072603500,-64,-32,31,0,0,0,0,0
1564072603531.25,-54,-34,40,0,0,0,0,0
1564072603562.5,-51,-31,39,0,0,0,0,0
1564072603593.75,-61,-26,27,0,0,0,0,0
1564072603625,-68,-23,22,0,0,0,0,0
1564072603656.25,-86,-28,10,0,0,0,0,0
1564072603687.5,-81,-34,9,0,0,0,0,0
1564072603718.75,-63,-38,9,0,0,0,0,0
1564072603750,-49,-36,11,0,0,0,0,0
1564072603781.25,-29,-33,19,0,0,0,0,0
1564072603812.5,-26,-34,21,0,0,0,0,0
1564072603843.75,-31,-39,18,0,0,0,0,0
1564072603875,-44,-41,13,0,0,0,0,0
1564072603906.25,-56,-39,4,0,0,0,0,0
1564072603937.5,-59,-37,2,0,0,0,0,0
1564072603968.75,-55,-37,6,0,0,0,0,0
1564072604000,-55,-34,28,0,0,0,0,0
1564072604031.25,-53,-36,40,0,0,0,0,0
1564072604062.5,-58,-38,51,0,0,0,0,0
1564072604093.75,-52,-38,51,0,0,0,0,0
1564072604125,-38,-29,43,0,0,0,0,0
1564072604156.25,-33,-24,36,0,0,0,0,0
1564072604187.5,-33,-14,24,0,0,0,0,0
1564072604218.75,-38,-11,19,0,0,0,0,0
1564072604250,-57,-9,11,0,0,0,0,0
1564072604281.25,-64,-10,10,0,0,0,0,0
1564072604312.5,-65,-18,16,0,0,0,0,0
1564072604343.75,-59,-21,23,0,0,0,0,0
1564072604375,-47,-26,41,0,0,0,0,0
1564072604406.25,-42,-29,49,0,0,0,0,0
1564072604437.5,-49,-31,46,0,0,0,0,0
1564072604468.75,-67,-30,36,0,0,0,0,0
1564072604500,-78,-31,32,0,0,0,0,0
1564072604531.25,-91,-46,24,0,0,0,0,0
1564072604562.5,-83,-52,22,0,0,0,0,0
1564072604593.75,-56,-49,21,0,0,0,0,0
1564072604625,-39,-43,21,0,0,0,0,0
1564072604656.25,-21,-31,17,0,0,0,0,0
1564072604687.5,-23,-29,12,0,0,0,0,0
1564072604718.75,-35,-30,5,0,0,0,0,0
1564072604750,-41,-32,3,0,0,0,0,0
1564072604781.25,-55,-41,2,0,0,0,0,0
1564072604812.5,-53,-44,9,0,0,0,0,0
1564072604843.75,-53,-44,11,0,0,0,0,0
1564072604875,-54,-38,28,0,0,0,0,0
1564072604906.25,-52,-38,39,0,0,0,0,0
1564072604937.5,-47,-34,52,0,0,0,0,0
1564072604968.75,-42,-34,53,0,0,0,0,0
1564072605000,-30,-28,44,0,0,0,0,0
1564072605031.25,-27,-23,38,0,0,0,0,0
1564072605062.5,-31,-13,25,0,0,0,0,0
1564072605093.75,-35,-7,20,0,0,0,0,0
1564072605125,-53,-4,11,0,0,0,0,0
1564072605156.25,-59,-6,10,0,0,0,0,0
1564072605187.5,-65,-17,15,0,0,0,0,0
1564072605218.75,-60,-24,24,0,0,0,0,0
1564072605250,-41,-34,47,0,0,0,0,0
1564072605281.25,-38,-39,59,0,0,0,0,0
1564072605312.5,-47,-40,57,0,0,0,0,0
1564072605343.75,-65,-49,45,0,0,0,0,0
1564072605375,-69,-47,38,0,0,0,0,0
1564072605406.25,-76,-47,26,0,0,0,0,0
1564072605437.5,-74,-49,23,0,0,0,0,0
1564072605468.75,-54,-44,22,0,0,0,0,0
1564072605500,-41,-38,20,0,0,0,0,0
1564072605531.25,-21,-27,17,0,0,0,0,0
1564072605562.5,-20,-23,15,0,0,0,0,0
1564072605593.75,-24,-26,11,0,0,0,0,0
1564072605625,-36,-36,12,0,0,0,0,0
1564072605656.25,-44,-39,13,0,0,0,0,0
1564072605687.5,-51,-40,13,0,0,0,0,0
1564072605718.75,-48,-38,13,0,0,0,0,0
1564072605750,-42,-36,16,0,0,0,0,0
1564072605781.25,-42,-35,21,0,0,0,0,0
1564072605812.5,-54,-32,36,0,0,0,0,0
1564072605843.75,-67,-37,41,0,0,0,0,0
1564072605875,-64,-50,44,0,0,0,0,0
1564072605906.25,-55,-50,44,0,0,0,0,0
1564072605937.5,-42,-36,38,0,0,0,0,0
1564072605968.75,-39,-28,34,0,0,0,0,0
1564072606000,-40,-15,26,0,0,0,0,0
1564072606031.25,-45,-11,19,0,0,0,0,0
1564072606062.5,-49,-11,16,0,0,0,0,0
1564072606093.75,-55,-14,21,0,0,0,0,0
1564072606125,-57,-19,29,0,0,0,0,0
1564072606156.25,-58,-39,39,0,0,0,0,0
1564072606187.5,-55,-45,41,0,0,0,0,0
1564072606218.75,-61,-55,43,0,0,0,0,0
1564072606250,-61,-60,44,0,0,0,0,0
1564072606281.25,-59,-50,34,0,0,0,0,0
1564072606312.5,-64,-49,28,0,0,0,0,0
1564072606343.75,-72,-56,27,0,0,0,0,0
1564072606375,-70,-61,27,0,0,0,0,0
1564072606406.25,-40,-60,25,0,0,0,0,0
1564072606437.5,-22,-42,16,0,0,0,0,0
1564072606468.75,-21,-36,11,0,0,0,0,0
1564072606500,-21,-34,3,0,0,0,0,0
1564072606531.25,-24,-38,0,0,0,0,0,0
1564072606562.5,-34,-47,-1,0,0,0,0,0
1564072606593.75,-39,-51,1,0,0,0,0,0
1564072606625,-41,-54,10,0,0,0,0,0
1564072606656.25,-35,-52,15,0,0,0,0,0
1564072606687.5,-27,-45,21,0,0,0,0,0
1564072606718.75,-29,-40,26,0,0,0,0,0
1564072606750,-43,-38,41,0,0,0,0,0
1564072606781.25,-64,-43,46,0,0,0,0,0
1564072606812.5,-62,-42,44,0,0,0,0,0
1564072606843.75,-50,-36,40,0,0,0,0,0
1564072606875,-31,-24,40,0,0,0,0,0
1564072606906.25,-36,-13,39,0,0,0,0,0
1564072606937.5,-47,-10,33,0,0,0,0,0
1564072606968.75,-62,-8,22,0,0,0,0,0
1564072607000,-63,-10,19,0,0,0,0,0
1564072607031.25,-61,-20,27,0,0,0,0,0
1564072607062.5,-59,-27,34,0,0,0,0,0
1564072607093.75,-54,-43,46,0,0,0,0,0
1564072607125,-52,-46,46,0,0,0,0,0
1564072607156.25,-61,-57,40,0,0,0,0,0
1564072607187.5,-59,-58,37,0,0,0,0,0
1564072607218.75,-68,-62,29,0,0,0,0,0
1564072607250,-74,-70,28,0,0,0,0,0
1564072607281.25,-64,-80,33,0,0,0,0,0
1564072607312.5,-31,-63,27,0,0,0,0,0
1564072607343.75,-21,-52,22,0,0,0,0,0
1564072607375,-23,-40,12,0,0,0,0,0
1564072607406.25,-24,-37,7,0,0,0,0,0
1564072607437.5,-27,-37,1,0,0,0,0,0
1564072607468.75,-32,-38,-1,0,0,0,0,0
1564072607500,-42,-36,-5,0,0,0,0,0
1564072607531.25,-44,-32,-8,0,0,0,0,0
1564072607562.5,-43,-24,-12,0,0,0,0,0
1564072607593.75,-46,-26,-6,0,0,0,0,0
1564072607625,-49,-28,35,0,0,0,0,0
1564072607656.25,-53,-29,58,0,0,0,0,0
1564072607687.5,-61,-31,79,0,0,0,0,0
1564072607718.75,-59,-35,41,0,0,0,0,0
1564072607750,-68,-32,35,0,0,0,0,0
1564072607781.25,-69,-4,38,0,0,0,0,0
1564072607812.5,-57,20,36,0,0,0,0,0
1564072607843.75,-54,18,33,0,0,0,0,0
1564072607875,-50,9,30,0,0,0,0,0
1564072607906.25,-40,-12,37,0,0,0,0,0
1564072607937.5,-34,-21,47,0,0,0,0,0
1564072607968.75,-46,-33,50,0,0,0,0,0
1564072608000,-56,-36,37,0,0,0,0,0
1564072608031.25,-56,-31,31,0,0,0,0,0
1564072608062.5,-52,-25,29,0,0,0,0,0
1564072608093.75,-46,-13,29,0,0,0,0,0
1564072608125,-60,-15,29,0,0,0,0,0
1564072608156.25,-61,-17,28,0,0,0,0,0
1564072608187.5,-69,-18,23,0,0,0,0,0
1564072608218.75,-71,-20,25,0,0,0,0,0
1564072608250,-68,-28,30,0,0,0,0,0
1564072608281.25,-62,-29,29,0,0,0,0,0
1564072608312.5,-41,-22,21,0,0,0,0,0
1564072608343.75,-34,-17,20,0,0,0,0,0
1564072608375,-35,-12,24,0,0,0,0,0
1564072608406.25,-37,-12,26,0,0,0,0,0
1564072608437.5,-44,-15,24,0,0,0,0,0
1564072608468.75,-48,-17,17,0,0,0,0,0
1564072608500,-57,-17,0,0,0,0,0,0
1564072608531.25,-68,-20,-21,0,0,0,0,0
1564072608562.5,-55,-27,8,0,0,0,0,0
1564072608593.75,-50,-26,74,0,0,0,0,0
1564072608625,-46,-14,77,0,0,0,0,0
1564072608656.25,-33,-14,54,0,0,0,0,0
1564072608687.5,-42,-26,27,0,0,0,0,0
1564072608718.75,-97,-45,12,0,0,0,0,0
1564072608750,-93,-29,16,0,0,0,0,0
1564072608781.25,-42,4,38,0,0,0,0,0
1564072608812.5,-41,8,36,0,0,0,0,0
1564072608843.75,-54,8,18,0,0,0,0,0
1564072608875,-63,4,7,0,0,0,0,0
1564072608906.25,-65,-12,15,0,0,0,0,0
1564072608937.5,-64,-28,49,0,0,0,0,0
1564072608968.75,-69,-32,52,0,0,0,0,0
1564072609000,-63,-25,33,0,0,0,0,0
1564072609031.25,-73,-20,14,0,0,0,0,0
1564072609062.5,-73,-12,-1,0,0,0,0,0
1564072609093.75,-72,-9,-2,0,0,0,0,0
1564072609125,-71,-18,4,0,0,0,0,0
1564072609156.25,-70,-29,14,0,0,0,0,0
1564072609187.5,-46,-38,29,0,0,0,0,0
1564072609218.75,-38,-33,27,0,0,0,0,0
1564072609250,-32,-17,11,0,0,0,0,0
1564072609281.25,-39,-13,4,0,0,0,0,0
1564072609312.5,-57,-15,0,0,0,0,0,0
1564072609343.75,-64,-23,-2,0,0,0,0,0
1564072609375,-65,-26,-3,0,0,0,0,0
1564072609406.25,-59,-26,-10,0,0,0,0,0
1564072609437.5,-60,-25,-10,0,0,0,0,0
1564072609468.75,-46,-36,26,0,0,0,0,0
1564072609500,-39,-36,47,0,0,0,0,0
1564072609531.25,-53,-26,43,0,0,0,0,0
1564072609562.5,-56,-25,46,0,0,0,0,0
1564072609593.75,-36,-21,41,0,0,0,0,0
1564072609625,-40,-20,20,0,0,0,0,0
1564072609656.25,-92,-27,-2,0,0,0,0,0
1564072609687.5,-90,-4,9,0,0,0,0,0
1564072609718.75,-54,2,29,0,0,0,0,0
1564072609750,-61,-8,30,0,0,0,0,0
1564072609781.25,-61,-14,30,0,0,0,0,0
1564072609812.5,-50,-18,32,0,0,0,0,0
1564072609843.75,-53,-19,32,0,0,0,0,0
1564072609875,-63,-20,26,0,0,0,0,0
1564072609906.25,-70,-18,21,0,0,0,0,0
1564072609937.5,-79,-21,14,0,0,0,0,0
1564072609968.75,-83,-22,14,0,0,0,0,0
1564072610000,-92,-34,14,0,0,0,0,0
1564072610031.25,-87,-44,17,0,0,0,0,0
1564072610062.5,-58,-47,21,0,0,0,0,0
1564072610093.75,-43,-39,21,0,0,0,0,0
1564072610125,-28,-23,17,0,0,0,0,0
1564072610156.25,-32,-17,14,0,0,0,0,0
1564072610187.5,-38,-18,10,0,0,0,0,0
1564072610218.75,-51,-25,3,0,0,0,0,0
1564072610250,-57,-28,0,0,0,0,0,0
1564072610281.25,-62,-31,-4,0,0,0,0,0
1564072610312.5,-55,-31,-4,0,0,0,0,0
1564072610343.75,-46,-35,9,0,0,0,0,0
1564072610375,-45,-36,24,0,0,0,0,0
1564072610406.25,-51,-34,44,0,0,0,0,0
1564072610437.5,-53,-34,44,0,0,0,0,0
1564072610468.75,-35,-29,42,0,0,0,0,0
1564072610500,-31,-25,33,0,0,0,0,0
1564072610531.25,-51,-19,14,0,0,0,0,0
1564072610562.5,-76,-14,5,0,0,0,0,0
1564072610593.75,-76,-6,6,0,0,0,0,0
1564072610625,-77,0,12,0,0,0,0,0
1564072610656.25,-70,-6,26,0,0,0,0,0
1564072610687.5,-48,-24,63,0,0,0,0,0
1564072610718.75,-41,-30,69,0,0,0,0,0
1564072610750,-50,-24,49,0,0,0,0,0
1564072610781.25,-63,-19,32,0,0,0,0,0
1564072610812.5,-85,-21,-2,0,0,0,0,0
1564072610843.75,-89,-20,-10,0,0,0,0,0
1564072610875,-91,-27,-7,0,0,0,0,0
1564072610906.25,-84,-40,2,0,0,0,0,0
1564072610937.5,-45,-51,30,0,0,0,0,0
1564072610968.75,-28,-36,24,0,0,0,0,0
1564072611000,-28,-31,13,0,0,0,0,0
1564072611031.25,-36,-28,1,0,0,0,0,0
1564072611062.5,-40,-28,-2,0,0,0,0,0
1564072611093.75,-45,-28,-8,0,0,0,0,0
1564072611125,-44,-26,-10,0,0,0,0,0
1564072611156.25,-54,-22,-23,0,0,0,0,0
1564072611187.5,-56,-23,-24,0,0,0,0,0
1564072611218.75,-40,-33,27,0,0,0,0,0
1564072611250,-44,-35,50,0,0,0,0,0
1564072611281.25,-55,-31,58,0,0,0,0,0
1564072611312.5,-55,-31,54,0,0,0,0,0
1564072611343.75,-69,-47,15,0,0,0,0,0
1564072611375,-99,-53,0,0,0,0,0,0
1564072611406.25,-81,-27,16,0,0,0,0,0
1564072611437.5,-25,1,41,0,0,0,0,0
1564072611468.75,-26,4,37,0,0,0,0,0
1564072611500,-48,3,16,0,0,0,0,0
1564072611531.25,-57,3,7,0,0,0,0,0
1564072611562.5,-55,-6,10,0,0,0,0,0
1564072611593.75,-54,-12,18,0,0,0,0,0
1564072611625,-60,-25,35,0,0,0,0,0
1564072611656.25,-59,-29,38,0,0,0,0,0
1564072611687.5,-64,-28,34,0,0,0,0,0
1564072611718.75,-70,-30,30,0,0,0,0,0
1564072611750,-86,-34,21,0,0,0,0,0
1564072611781.25,-91,-39,18,0,0,0,0,0
1564072611812.5,-90,-57,17,0,0,0,0,0
1564072611843.75,-53,-50,23,0,0,0,0,0
1564072611875,-32,-41,24,0,0,0,0,0
1564072611906.25,-20,-28,19,0,0,0,0,0
1564072611937.5,-22,-26,14,0,0,0,0,0
1564072611968.75,-38,-27,-2,0,0,0,0,0
1564072612000,-48,-28,-8,0,0,0,0,0
1564072612031.25,-56,-28,-15,0,0,0,0,0
1564072612062.5,-57,-26,-18,0,0,0,0,0
1564072612093.75,-50,-23,-17,0,0,0,0,0
1564072612125,-45,-28,-3,0,0,0,0,0
1564072612156.25,-43,-30,39,0,0,0,0,0
1564072612187.5,-62,-31,51,0,0,0,0,0
1564072612218.75,-65,-33,47,0,0,0,0,0
1564072612250,-64,-36,28,0,0,0,0,0
1564072612281.25,-72,-36,15,0,0,0,0,0
1564072612312.5,-60,-28,15,0,0,0,0,0
1564072612343.75,-50,-21,21,0,0,0,0,0
1564072612375,-45,-4,30,0,0,0,0,0
1564072612406.25,-41,-5,30,0,0,0,0,0
1564072612437.5,-48,-8,18,0,0,0,0,0
1564072612468.75,-57,-12,15,0,0,0,0,0
1564072612500,-59,-23,20,0,0,0,0,0
1564072612531.25,-62,-28,24,0,0,0,0,0
1564072612562.5,-61,-37,35,0,0,0,0,0
1564072612593.75,-64,-39,38,0,0,0,0,0
1564072612625,-63,-37,35,0,0,0,0,0
1564072612656.25,-76,-34,26,0,0,0,0,0
1564072612687.5,-83,-37,20,0,0,0,0,0
1564072612718.75,-77,-44,14,0,0,0,0,0
1564072612750,-65,-43,14,0,0,0,0,0
1564072612781.25,-36,-32,16,0,0,0,0,0
1564072612812.5,-30,-28,16,0,0,0,0,0
1564072612843.75,-29,-24,12,0,0,0,0,0
1564072612875,-34,-26,9,0,0,0,0,0
1564072612906.25,-44,-31,3,0,0,0,0,0
1564072612937.5,-50,-31,-1,0,0,0,0,0
1564072612968.75,-59,-30,-6,0,0,0,0,0
1564072613000,-58,-32,-8,0,0,0,0,0
1564072613031.25,-57,-35,-1,0,0,0,0,0
1564072613062.5,-46,-33,36,0,0,0,0,0
1564072613093.75,-44,-32,49,0,0,0,0,0
1564072613125,-47,-34,61,0,0,0,0,0
1564072613156.25,-44,-32,56,0,0,0,0,0
1564072613187.5,-45,-30,28,0,0,0,0,0
1564072613218.75,-54,-30,16,0,0,0,0,0
1564072613250,-54,-20,15,0,0,0,0,0
1564072613281.25,-51,-13,17,0,0,0,0,0
1564072613312.5,-55,-7,15,0,0,0,0,0
1564072613343.75,-61,-8,15,0,0,0,0,0
1564072613375,-62,-15,20,0,0,0,0,0
1564072613406.25,-57,-17,26,0,0,0,0,0
1564072613437.5,-49,-25,41,0,0,0,0,0
1564072613468.75,-49,-30,44,0,0,0,0,0
1564072613500,-58,-29,38,0,0,0,0,0
1564072613531.25,-74,-27,28,0,0,0,0,0
1564072613562.5,-80,-27,25,0,0,0,0,0
1564072613593.75,-88,-38,19,0,0,0,0,0
1564072613625,-83,-47,18,0,0,0,0,0
1564072613656.25,-59,-51,22,0,0,0,0,0
1564072613687.5,-38,-43,22,0,0,0,0,0
1564072613718.75,-18,-28,19,0,0,0,0,0
1564072613750,-19,-26,15,0,0,0,0,0
1564072613781.25,-34,-27,5,0,0,0,0,0
1564072613812.5,-41,-27,-1,0,0,0,0,0
1564072613843.75,-57,-28,-11,0,0,0,0,0
1564072613875,-63,-30,-11,0,0,0,0,0
1564072613906.25,-58,-29,-7,0,0,0,0,0
1564072613937.5,-51,-30,19,0,0,0,0,0
1564072613968.75,-51,-27,35,0,0,0,0,0
1564072614000,-53,-25,50,0,0,0,0,0
1564072614031.25,-68,-26,52,0,0,0,0,0
1564072614062.5,-74,-24,39,0,0,0,0,0
1564072614093.75,-74,-28,31,0,0,0,0,0
1564072614125,-66,-25,24,0,0,0,0,0
1564072614156.25,-52,-15,26,0,0,0,0,0
1564072614187.5,-42,1,26,0,0,0,0,0
1564072614218.75,-46,2,23,0,0,0,0,0
1564072614250,-47,-2,26,0,0,0,0,0
1564072614281.25,-43,-11,38,0,0,0,0,0
1564072614312.5,-45,-16,41,0,0,0,0,0
1564072614343.75,-59,-24,40,0,0,0,0,0
1564072614375,-66,-27,37,0,0,0,0,0
1564072614406.25,-63,-24,28,0,0,0,0,0
1564072614437.5,-65,-23,26,0,0,0,0,0
1564072614468.75,-64,-17,25,0,0,0,0,0
1564072614500,-69,-18,26,0,0,0,0,0
1564072614531.25,-73,-27,27,0,0,0,0,0
1564072614562.5,-65,-32,26,0,0,0,0,0
1564072614593.75,-45,-31,26,0,0,0,0,0
1564072614625,-35,-26,25,0,0,0,0,0
1564072614656.25,-29,-18,21,0,0,0,0,0
1564072614687.5,-33,-16,15,0,0,0,0,0
1564072614718.75,-36,-17,12,0,0,0,0,0
1564072614750,-51,-19,1,0,0,0,0,0
1564072614781.25,-62,-22,-6,0,0,0,0,0
1564072614812.5,-71,-29,-6,0,0,0,0,0
1564072614843.75,-64,-35,11,0,0,0,0,0
1564072614875,-49,-37,51,0,0,0,0,0
1564072614906.25,-47,-36,59,0,0,0,0,0
1564072614937.5,-44,-37,62,0,0,0,0,0
1564072614968.75,-43,-36,56,0,0,0,0,0
1564072615000,-57,-31,24,0,0,0,0,0
1564072615031.25,-67,-19,14,0,0,0,0,0
1564072615062.5,-57,2,17,0,0,0,0,0
1564072615093.75,-64,8,14,0,0,0,0,0
1564072615125,-68,4,16,0,0,0,0,0
1564072615156.25,-60,-11,30,0,0,0,0,0
1564072615187.5,-52,-17,40,0,0,0,0,0
1564072615218.75,-50,-25,51,0,0,0,0,0
1564072615250,-54,-27,47,0,0,0,0,0
1564072615281.25,-72,-24,29,0,0,0,0,0
1564072615312.5,-75,-24,19,0,0,0,0,0
1564072615343.75,-83,-22,13,0,0,0,0,0
1564072615375,-89,-29,12,0,0,0,0,0
1564072615406.25,-79,-48,15,0,0,0,0,0
1564072615437.5,-61,-51,20,0,0,0,0,0
1564072615468.75,-29,-36,23,0,0,0,0,0
1564072615500,-25,-27,17,0,0,0,0,0
1564072615531.25,-27,-27,14,0,0,0,0,0
1564072615562.5,-36,-29,4,0,0,0,0,0
1564072615593.75,-43,-28,-2,0,0,0,0,0
1564072615625,-52,-28,-7,0,0,0,0,0
1564072615656.25,-55,-29,-6,0,0,0,0,0
1564072615687.5,-52,-27,2,0,0,0,0,0
1564072615718.75,-45,-30,15,0,0,0,0,0
1564072615750,-41,-29,43,0,0,0,0,0
1564072615781.25,-54,-29,41,0,0,0,0,0
1564072615812.5,-73,-33,40,0,0,0,0,0
1564072615843.75,-73,-36,36,0,0,0,0,0
1564072615875,-66,-36,36,0,0,0,0,0
1564072615906.25,-50,-23,38,0,0,0,0,0
1564072615937.5,-39,-15,37,0,0,0,0,0
1564072615968.75,-32,-9,29,0,0,0,0,0
1564072616000,-32,-8,24,0,0,0,0,0
1564072616031.25,-40,-13,22,0,0,0,0,0
1564072616062.5,-45,-17,26,0,0,0,0,0
1564072616093.75,-48,-24,31,0,0,0,0,0
1564072616125,-45,-27,35,0,0,0,0,0
1564072616156.25,-41,-33,44,0,0,0,0,0
1564072616187.5,-44,-35,48,0,0,0,0,0
1564072616218.75,-67,-50,33,0,0,0,0,0
1564072616250,-76,-54,26,0,0,0,0,0
1564072616281.25,-60,-47,27,0,0,0,0,0
1564072616312.5,-29,-61,48,0,0,0,0,0
1564072616343.75,-62,-31,28,0,0,0,0,0
1564072616375,-46,-48,34,0,0,0,0,0
1564072616406.25,-47,-39,14,0,0,0,0,0
1564072616437.5,-31,-29,21,0,0,0,0,0
1564072616468.75,-26,-26,21,0,0,0,0,0
1564072616500,-30,-20,19,0,0,0,0,0
1564072616531.25,-33,-18,14,0,0,0,0,0
1564072616562.5,-36,-23,20,0,0,0,0,0
1564072616593.75,-35,-27,26,0,0,0,0,0
1564072616625,-71,-30,16,0,0,0,0,0
1564072616656.25,-81,-30,17,0,0,0,0,0
1564072616687.5,-66,-31,22,0,0,0,0,0
1564072616718.75,-61,-24,24,0,0,0,0,0
1564072616750,-67,-23,23,0,0,0,0,0
1564072616781.25,-69,-26,18,0,0,0,0,0
1564072616812.5,-61,-26,20,0,0,0,0,0
1564072616843.75,-48,-20,22,0,0,0,0,0
1564072616875,-43,-16,19,0,0,0,0,0
1564072616906.25,-39,-10,14,0,0,0,0,0
1564072616937.5,-38,-9,11,0,0,0,0,0
1564072616968.75,-39,-12,7,0,0,0,0,0
1564072617000,-44,-14,5,0,0,0,0,0
1564072617031.25,-49,-22,7,0,0,0,0,0
1564072617062.5,-44,-25,16,0,0,0,0,0
1564072617093.75,-47,-28,36,0,0,0,0,0
1564072617125,-55,-17,47,0,0,0,0,0
1564072617156.25,-59,-18,39,0,0,0,0,0
1564072617187.5,-73,-29,18,0,0,0,0,0
1564072617218.75,-92,-34,14,0,0,0,0,0
1564072617250,-63,-26,38,0,0,0,0,0
1564072617281.25,-63,-29,44,0,0,0,0,0
1564072617312.5,-79,-42,37,0,0,0,0,0
1564072617343.75,-80,-44,28,0,0,0,0,0
1564072617375,-55,-35,19,0,0,0,0,0
1564072617406.25,-41,-27,16,0,0,0,0,0
1564072617437.5,-36,-21,13,0,0,0,0,0
1564072617468.75,-39,-18,10,0,0,0,0,0
1564072617500,-41,-19,6,0,0,0,0,0
1564072617531.25,-43,-21,5,0,0,0,0,0
1564072617562.5,-52,-25,2,0,0,0,0,0
1564072617593.75,-52,-28,3,0,0,0,0,0
1564072617625,-58,-34,5,0,0,0,0,0
1564072617656.25,-62,-31,26,0,0,0,0,0
1564072617687.5,-63,-31,35,0,0,0,0,0
1564072617718.75,-55,-34,44,0,0,0,0,0
1564072617750,-54,-37,44,0,0,0,0,0
1564072617781.25,-47,-29,33,0,0,0,0,0
1564072617812.5,-45,-25,29,0,0,0,0,0
1564072617843.75,-43,-15,26,0,0,0,0,0
1564072617875,-44,-12,21,0,0,0,0,0
1564072617906.25,-53,-10,15,0,0,0,0,0
1564072617937.5,-63,-13,13,0,0,0,0,0
1564072617968.75,-64,-19,19,0,0,0,0,0
1564072618000,-48,-27,36,0,0,0,0,0
1564072618031.25,-45,-31,42,0,0,0,0,0
1564072618062.5,-53,-36,42,0,0,0,0,0
1564072618093.75,-61,-32,38,0,0,0,0,0
1564072618125,-68,-26,29,0,0,0,0,0
1564072618156.25,-66,-25,26,0,0,0,0,0
1564072618187.5,-64,-19,24,0,0,0,0,0
1564072618218.75,-67,-22,24,0,0,0,0,0
1564072618250,-76,-39,30,0,0,0,0,0
1564072618281.25,-64,-42,30,0,0,0,0,0
1564072618312.5,-40,-36,28,0,0,0,0,0
1564072618343.75,-33,-29,24,0,0,0,0,0
1564072618375,-35,-24,15,0,0,0,0,0
1564072618406.25,-40,-25,9,0,0,0,0,0
1564072618437.5,-41,-26,8,0,0,0,0,0
1564072618468.75,-43,-28,9,0,0,0,0,0
1564072618500,-46,-28,12,0,0,0,0,0
1564072618531.25,-45,-29,18,0,0,0,0,0
1564072618562.5,-44,-29,21,0,0,0,0,0
1564072618593.75,-53,-34,33,0,0,0,0,0
1564072618625,-57,-35,43,0,0,0,0,0
1564072618656.25,-59,-34,50,0,0,0,0,0
1564072618687.5,-56,-34,49,0,0,0,0,0
1564072618718.75,-45,-32,43,0,0,0,0,0
1564072618750,-37,-23,34,0,0,0,0,0
1564072618781.25,-37,-17,30,0,0,0,0,0
1564072618812.5,-42,-11,24,0,0,0,0,0
1564072618843.75,-51,-10,21,0,0,0,0,0
1564072618875,-59,-17,21,0,0,0,0,0
1564072618906.25,-59,-21,24,0,0,0,0,0
1564072618937.5,-48,-27,37,0,0,0,0,0
1564072618968.75,-45,-29,42,0,0,0,0,0
1564072619000,-45,-31,46,0,0,0,0,0
1564072619031.25,-47,-30,43,0,0,0,0,0
1564072619062.5,-63,-32,35,0,0,0,0,0
1564072619093.75,-67,-34,33,0,0,0,0,0
1564072619125,-76,-37,30,0,0,0,0,0
1564072619156.25,-78,-44,32,0,0,0,0,0
1564072619187.5,-68,-59,35,0,0,0,0,0
1564072619218.75,-45,-52,32,0,0,0,0,0
1564072619250,-33,-43,26,0,0,0,0,0
1564072619281.25,-25,-28,12,0,0,0,0,0
1564072619312.5,-30,-26,6,0,0,0,0,0
1564072619343.75,-38,-26,-3,0,0,0,0,0
1564072619375,-43,-27,-4,0,0,0,0,0
1564072619406.25,-49,-32,1,0,0,0,0,0
1564072619437.5,-51,-36,6,0,0,0,0,0
1564072619468.75,-46,-39,15,0,0,0,0,0
1564072619500,-41,-38,17,0,0,0,0,0
1564072619531.25,-41,-38,26,0,0,0,0,0
1564072619562.5,-43,-38,35,0,0,0,0,0
1564072619593.75,-57,-42,44,0,0,0,0,0
1564072619625,-57,-43,46,0,0,0,0,0
1564072619656.25,-52,-41,45,0,0,0,0,0
1564072619687.5,-38,-31,41,0,0,0,0,0
1564072619718.75,-34,-24,37,0,0,0,0,0
1564072619750,-39,-14,28,0,0,0,0,0
1564072619781.25,-42,-13,25,0,0,0,0,0
1564072619812.5,-50,-14,20,0,0,0,0,0
1564072619843.75,-50,-16,21,0,0,0,0,0
1564072619875,-51,-22,27,0,0,0,0,0
1564072619906.25,-55,-24,29,0,0,0,0,0
1564072619937.5,-57,-29,36,0,0,0,0,0
1564072619968.75,-53,-33,39,0,0,0,0,0
1564072620000,-56,-38,37,0,0,0,0,0
1564072620031.25,-62,-51,38,0,0,0,0,0
1564072620062.5,-60,-52,35,0,0,0,0,0
1564072620093.75,-63,-53,26,0,0,0,0,0
1564072620125,-65,-57,26,0,0,0,0,0
1564072620156.25,-59,-61,29,0,0,0,0,0
1564072620187.5,-48,-57,27,0,0,0,0,0
1564072620218.75,-29,-41,21,0,0,0,0,0
1564072620250,-27,-35,17,0,0,0,0,0
1564072620281.25,-32,-27,9,0,0,0,0,0
1564072620312.5,-38,-26,6,0,0,0,0,0
1564072620343.75,-49,-26,5,0,0,0,0,0
1564072620375,-51,-27,7,0,0,0,0,0
1564072620406.25,-46,-29,14,0,0,0,0,0
1564072620437.5,-44,-28,20,0,0,0,0,0
1564072620468.75,-48,-27,22,0,0,0,0,0
1564072620500,-62,-22,31,0,0,0,0,0
1564072620531.25,-69,-21,35,0,0,0,0,0
1564072620562.5,-73,-17,42,0,0,0,0,0
1564072620593.75,-82,-19,38,0,0,0,0,0
1564072620625,-74,-17,42,0,0,0,0,0
1564072620656.25,-62,-13,43,0,0,0,0,0
1564072620687.5,-41,-2,31,0,0,0,0,0
1564072620718.75,-36,4,26,0,0,0,0,0
1564072620750,-36,7,19,0,0,0,0,0
1564072620781.25,-39,7,16,0,0,0,0,0
1564072620812.5,-49,7,15,0,0,0,0,0
1564072620843.75,-48,8,16,0,0,0,0,0
1564072620875,-50,8,12,0,0,0,0,0
1564072620906.25,-58,9,5,0,0,0,0,0
1564072620937.5,-60,9,4,0,0,0,0,0
1564072620968.75,-65,10,6,0,0,0,0,0
1564072621000,-79,8,-1,0,0,0,0,0
1564072621031.25,-86,1,-4,0,0,0,0,0
1564072621062.5,-77,6,-7,0,0,0,0,0
1564072621093.75,-68,8,-3,0,0,0,0,0
1564072621125,-72,2,-5,0,0,0,0,0
1564072621156.25,-71,-10,-9,0,0,0,0,0
1564072621187.5,-58,-15,0,0,0,0,0,0
1564072621218.75,-56,-9,-6,0,0,0,0,0
1564072621250,-40,-7,4,0,0,0,0,0
1564072621281.25,-39,-5,7,0,0,0,0,0
1564072621312.5,-49,-5,5,0,0,0,0,0
1564072621343.75,-57,-8,-2,0,0,0,0,0
1564072621375,-62,-12,-3,0,0,0,0,0
1564072621406.25,-60,-10,0,0,0,0,0,0
1564072621437.5,-64,-9,1,0,0,0,0,0
1564072621468.75,-62,-5,2,0,0,0,0,0
1564072621500,-74,4,1,0,0,0,0,0
1564072621531.25,-97,-2,-9,0,0,0,0,0
1564072621562.5,-88,2,1,0,0,0,0,0
1564072621593.75,-78,7,3,0,0,0,0,0
1564072621625,-66,3,3,0,0,0,0,0
1564072621656.25,-62,-12,9,0,0,0,0,0
1564072621687.5,-65,-9,1,0,0,0,0,0
1564072621718.75,-49,-11,-5,0,0,0,0,0
1564072621750,-48,-13,-11,0,0,0,0,0
1564072621781.25,-51,-16,-19,0,0,0,0,0
1564072621812.5,-49,-20,-10,0,0,0,0,0
1564072621843.75,-46,-22,-3,0,0,0,0,0
1564072621875,-48,-24,1,0,0,0,0,0
1564072621906.25,-58,-31,11,0,0,0,0,0
1564072621937.5,-65,-30,7,0,0,0,0,0
1564072621968.75,-69,-14,-7,0,0,0,0,0
1564072622000,-75,5,-23,0,0,0,0,0
1564072622031.25,-73,11,-26,0,0,0,0,0
1564072622062.5,-71,14,-23,0,0,0,0,0
1564072622093.75,-67,12,-17,0,0,0,0,0
1564072622125,-61,12,-23,0,0,0,0,0
1564072622156.25,-57,15,-31,0,0,0,0,0
1564072622187.5,-42,8,-52,0,0,0,0,0
1564072622218.75,-31,5,-19,0,0,0,0,0
1564072622250,-67,-15,39,0,0,0,0,0
1564072622281.25,-71,-10,15,0,0,0,0,0
1564072622312.5,-63,-21,24,0,0,0,0,0
1564072622343.75,-70,-30,25,0,0,0,0,0
1564072622375,-74,-35,31,0,0,0,0,0
1564072622406.25,-70,-31,32,0,0,0,0,0
1564072622437.5,-63,-25,12,0,0,0,0,0
1564072622468.75,-65,-22,7,0,0,0,0,0
1564072622500,-67,-20,4,0,0,0,0,0
1564072622531.25,-66,-16,5,0,0,0,0,0
1564072622562.5,-56,-14,-1,0,0,0,0,0
1564072622593.75,-52,-13,-6,0,0,0,0,0
1564072622625,-61,-12,0,0,0,0,0,0
1564072622656.25,-57,-11,5,0,0,0,0,0
1564072622687.5,-54,-10,8,0,0,0,0,0
1564072622718.75,-60,-11,3,0,0,0,0,0
1564072622750,-61,-11,8,0,0,0,0,0
1564072622781.25,-64,-11,12,0,0,0,0,0
1564072622812.5,-62,-9,10,0,0,0,0,0
1564072622843.75,-63,-11,12,0,0,0,0,0
1564072622875,-61,-12,17,0,0,0,0,0
1564072622906.25,-62,-10,14,0,0,0,0,0
1564072622937.5,-64,-9,12,0,0,0,0,0
1564072622968.75,-63,-11,15,0,0,0,0,0
1564072623000,-56,-14,21,0,0,0,0,0
1564072623031.25,-56,-13,23,0,0,0,0,0
1564072623062.5,-63,-14,22,0,0,0,0,0
1564072623093.75,-61,-14,22,0,0,0,0,0
1564072623125,-53,-12,22,0,0,0,0,0
1564072623156.25,-51,-9,23,0,0,0,0,0
1564072623187.5,-64,-4,15,0,0,0,0,0
1564072623218.75,-58,-6,19,0,0,0,0,0
1564072623250,-56,-8,26,0,0,0,0,0
1564072623281.25,-70,-4,28,0,0,0,0,0
1564072623312.5,-64,-24,30,0,0,0,0,0
1564072623343.75,-60,-9,21,0,0,0,0,0
1564072623375,-51,-10,26,0,0,0,0,0
1564072623406.25,-50,-10,28,0,0,0,0,0
1564072623437.5,-49,-9,27,0,0,0,0,0
1564072623468.75,-48,-9,26,0,0,0,0,0
1564072623500,-45,-9,27,0,0,0,0,0
1564072623531.25,-56,-7,29,0,0,0,0,0
1564072623562.5,-61,-3,26,0,0,0,0,0
1564072623593.75,-60,-6,-5,0,0,0,0,0
1564072623625,-74,-12,-16,0,0,0,0,0
1564072623656.25,-77,-15,17,0,0,0,0,0
1564072623687.5,-72,-17,14,0,0,0,0,0
1564072623718.75,-67,-27,16,0,0,0,0,0
1564072623750,-64,-31,8,0,0,0,0,0
1564072623781.25,-63,-29,6,0,0,0,0,0
1564072623812.5,-58,-27,5,0,0,0,0,0
1564072623843.75,-53,-27,10,0,0,0,0,0
1564072623875,-52,-29,10,0,0,0,0,0
1564072623906.25,-50,-28,9,0,0,0,0,0
1564072623937.5,-60,-27,4,0,0,0,0,0
1564072623968.75,-64,-27,-1,0,0,0,0,0
1564072624000,-40,-24,4,0,0,0,0,0
1564072624031.25,-44,-35,25,0,0,0,0,0
1564072624062.5,-38,-28,49,0,0,0,0,0
1564072624093.75,-35,-21,62,0,0,0,0,0
1564072624125,-53,-4,56,0,0,0,0,0
1564072624156.25,-108,-22,-6,0,0,0,0,0
1564072624187.5,-96,-2,34,0,0,0,0,0
1564072624218.75,-47,12,67,0,0,0,0,0
1564072624250,-51,8,71,0,0,0,0,0
1564072624281.25,-41,-13,21,0,0,0,0,0
1564072624312.5,-56,-17,-9,0,0,0,0,0
1564072624343.75,-88,-24,-20,0,0,0,0,0
1564072624375,-88,-29,-9,0,0,0,0,0
1564072624406.25,-65,-32,4,0,0,0,0,0
1564072624437.5,-50,-27,4,0,0,0,0,0
1564072624468.75,-51,-20,6,0,0,0,0,0
1564072624500,-46,-19,10,0,0,0,0,0
1564072624531.25,-52,-16,4,0,0,0,0,0
1564072624562.5,-45,-21,10,0,0,0,0,0
1564072624593.75,-48,-23,10,0,0,0,0,0
1564072624625,-53,-23,4,0,0,0,0,0
1564072624656.25,-59,-27,-3,0,0,0,0,0
1564072624687.5,-58,-39,13,0,0,0,0,0
1564072624718.75,-60,-41,19,0,0,0,0,0
1564072624750,-66,-46,40,0,0,0,0,0
1564072624781.25,-64,-41,50,0,0,0,0,0
1564072624812.5,-48,-22,39,0,0,0,0,0
1564072624843.75,-52,-15,10,0,0,0,0,0
1564072624875,-71,-20,-3,0,0,0,0,0
1564072624906.25,-74,-3,20,0,0,0,0,0
1564072624937.5,-44,-4,49,0,0,0,0,0
1564072624968.75,-41,-10,47,0,0,0,0,0
1564072625000,-57,-13,28,0,0,0,0,0
1564072625031.25,-72,-19,15,0,0,0,0,0
1564072625062.5,-72,-21,14,0,0,0,0,0
1564072625093.75,-65,-25,20,0,0,0,0,0
1564072625125,-57,-29,28,0,0,0,0,0
1564072625156.25,-61,-22,23,0,0,0,0,0
1564072625187.5,-60,-20,10,0,0,0,0,0
1564072625218.75,-53,-20,15,0,0,0,0,0
1564072625250,-58,-20,15,0,0,0,0,0
1564072625281.25,-57,-16,8,0,0,0,0,0
1564072625312.5,-62,-15,4,0,0,0,0,0
1564072625343.75,-70,-18,1,0,0,0,0,0
1564072625375,-67,-25,4,0,0,0,0,0
1564072625406.25,-66,-25,6,0,0,0,0,0
1564072625437.5,-62,-23,6,0,0,0,0,0
1564072625468.75,-60,-22,4,0,0,0,0,0
1564072625500,-54,-19,5,0,0,0,0,0
1564072625531.25,-51,-17,7,0,0,0,0,0
1564072625562.5,-50,-14,9,0,0,0,0,0
1564072625593.75,-54,-15,8,0,0,0,0,0
1564072625625,-55,-19,9,0,0,0,0,0
1564072625656.25,-52,-21,13,0,0,0,0,0
1564072625687.5,-51,-24,17,0,0,0,0,0
1564072625718.75,-57,-27,20,0,0,0,0,0
1564072625750,-56,-30,18,0,0,0,0,0
1564072625781.25,-55,-30,20,0,0,0,0,0
1564072625812.5,-56,-30,18,0,0,0,0,0
1564072625843.75,-58,-29,21,0,0,0,0,0
1564072625875,-60,-26,23,0,0,0,0,0
1564072625906.25,-53,-21,18,0,0,0,0,0
1564072625937.5,-57,-17,7,0,0,0,0,0
1564072625968.75,-63,-21,8,0,0,0,0,0
1564072626000,-62,-19,10,0,0,0,0,0
1564072626031.25,-49,-23,25,0,0,0,0,0
1564072626062.5,-39,-27,34,0,0,0,0,0
1564072626093.75,-40,-30,43,0,0,0,0,0
1564072626125,-36,-28,43,0,0,0,0,0
1564072626156.25,-47,-27,34,0,0,0,0,0
1564072626187.5,-54,-26,28,0,0,0,0,0
1564072626218.75,-54,-27,26,0,0,0,0,0
1564072626250,-48,-30,26,0,0,0,0,0
1564072626281.25,-45,-31,26,0,0,0,0,0
1564072626312.5,-51,-36,26,0,0,0,0,0
1564072626343.75,-52,-35,24,0,0,0,0,0
1564072626375,-52,-35,20,0,0,0,0,0
1564072626406.25,-51,-39,17,0,0,0,0,0
1564072626437.5,-55,-50,12,0,0,0,0,0
1564072626468.75,-53,-55,13,0,0,0,0,0
1564072626500,-50,-58,10,0,0,0,0,0
1564072626531.25,-47,-57,8,0,0,0,0,0
1564072626562.5,-41,-51,3,0,0,0,0,0
1564072626593.75,-38,-47,-1,0,0,0,0,0
1564072626625,-40,-46,-2,0,0,0,0,0
1564072626656.25,-45,-44,-5,0,0,0,0,0
1564072626687.5,-48,-43,-5,0,0,0,0,0
1564072626718.75,-45,-43,-2,0,0,0,0,0
1564072626750,-45,-44,1,0,0,0,0,0
1564072626781.25,-45,-46,6,0,0,0,0,0
1564072626812.5,-44,-45,8,0,0,0,0,0
1564072626843.75,-41,-46,11,0,0,0,0,0
1564072626875,-41,-46,8,0,0,0,0,0
1564072626906.25,-38,-43,6,0,0,0,0,0
1564072626937.5,-38,-41,5,0,0,0,0,0
1564072626968.75,-34,-34,3,0,0,0,0,0
1564072627000,-30,-32,0,0,0,0,0,0
1564072627031.25,-27,-31,1,0,0,0,0,0
1564072627062.5,-28,-35,-1,0,0,0,0,0
1564072627093.75,-27,-40,1,0,0,0,0,0
1564072627125,-18,-37,14,0,0,0,0,0
1564072627156.25,-12,-35,22,0,0,0,0,0
1564072627187.5,-18,-37,18,0,0,0,0,0
1564072627218.75,-22,-39,17,0,0,0,0,0
1564072627250,-18,-59,19,0,0,0,0,0
1564072627281.25,-23,-74,8,0,0,0,0,0
1564072627312.5,-16,-97,-3,0,0,0,0,0
1564072627343.75,-24,-100,-13,0,0,0,0,0
1564072627375,-23,-89,-19,0,0,0,0,0
1564072627406.25,-28,-90,-23,0,0,0,0,0
1564072627437.5,-36,-94,-17,0,0,0,0,0
1564072627468.75,-20,-89,6,0,0,0,0,0
1564072627500,-4,-65,-1,0,0,0,0,0
1564072627531.25,-10,-43,-7,0,0,0,0,0
1564072627562.5,-17,-42,-4,0,0,0,0,0
1564072627593.75,-23,-68,-3,0,0,0,0,0
1564072627625,-6,-84,-13,0,0,0,0,0
1564072627656.25,-7,-68,-8,0,0,0,0,0
1564072627687.5,-18,-49,-11,0,0,0,0,0
1564072627718.75,-13,-54,-12,0,0,0,0,0
1564072627750,4,-73,-10,0,0,0,0,0
1564072627781.25,5,-73,-6,0,0,0,0,0
1564072627812.5,-9,-62,-14,0,0,0,0,0
1564072627843.75,-1,-64,-12,0,0,0,0,0
1564072627875,1,-61,-7,0,0,0,0,0
1564072627906.25,1,-61,-10,0,0,0,0,0
1564072627937.5,-4,-62,-9,0,0,0,0,0
1564072627968.75,-7,-60,-6,0,0,0,0,0
1564072628000,-13,-66,-10,0,0,0,0,0
1564072628031.25,-11,-63,-10,0,0,0,0,0
1564072628062.5,-5,-58,-3,0,0,0,0,0
1564072628093.75,-12,-60,-5,0,0,0,0,0
1564072628125,-17,-64,-12,0,0,0,0,0
1564072628156.25,-14,-65,-8,0,0,0,0,0
1564072628187.5,-12,-64,-5,0,0,0,0,0
1564072628218.75,-16,-62,-8,0,0,0,0,0
1564072628250,-22,-64,-7,0,0,0,0,0
1564072628281.25,-22,-70,-4,0,0,0,0,0
1564072628312.5,-18,-77,-5,0,0,0,0,0
1564072628343.75,-39,-90,-13,0,0,0,0,0
1564072628375,-35,-97,-22,0,0,0,0,0
1564072628406.25,-33,-103,-30,0,0,0,0,0
1564072628437.5,-16,-99,-19,0,0,0,0,0
1564072628468.75,4,-82,-19,0,0,0,0,0
1564072628500,5,-71,-23,0,0,0,0,0
1564072628531.25,9,-50,-18,0,0,0,0,0
1564072628562.5,9,-41,-17,0,0,0,0,0
1564072628593.75,-1,-31,-21,0,0,0,0,0
1564072628625,-11,-34,-20,0,0,0,0,0
1564072628656.25,-2,-37,-11,0,0,0,0,0
1564072628687.5,-6,-47,-5,0,0,0,0,0
1564072628718.75,-10,-54,-3,0,0,0,0,0
1564072628750,-15,-48,-2,0,0,0,0,0
1564072628781.25,-17,-46,0,0,0,0,0,0
1564072628812.5,-25,-52,5,0,0,0,0,0
1564072628843.75,-25,-52,4,0,0,0,0,0
1564072628875,-40,-53,11,0,0,0,0,0
1564072628906.25,-33,-55,18,0,0,0,0,0
1564072628937.5,-26,-57,21,0,0,0,0,0
1564072628968.75,-29,-58,18,0,0,0,0,0
1564072629000,-28,-60,12,0,0,0,0,0
1564072629031.25,-24,-60,10,0,0,0,0,0
1564072629062.5,-22,-58,9,0,0,0,0,0
1564072629093.75,-23,-54,8,0,0,0,0,0
1564072629125,-23,-54,8,0,0,0,0,0
1564072629156.25,-23,-49,7,0,0,0,0,0
1564072629187.5,-19,-46,7,0,0,0,0,0
1564072629218.75,-16,-49,10,0,0,0,0,0
1564072629250,-18,-50,12,0,0,0,0,0
1564072629281.25,-23,-52,15,0,0,0,0,0
1564072629312.5,-26,-52,16,0,0,0,0,0
1564072629343.75,-33,-53,16,0,0,0,0,0
1564072629375,-37,-52,17,0,0,0,0,0
1564072629406.25,-37,-50,19,0,0,0,0,0
1564072629437.5,-36,-48,16,0,0,0,0,0
1564072629468.75,-36,-47,15,0,0,0,0,0
1564072629500,-44,-52,13,0,0,0,0,0
1564072629531.25,-49,-56,13,0,0,0,0,0
1564072629562.5,-50,-66,9,0,0,0,0,0
1564072629593.75,-50,-70,4,0,0,0,0,0
1564072629625,-40,-77,7,0,0,0,0,0
1564072629656.25,-34,-77,11,0,0,0,0,0
1564072629687.5,-23,-64,10,0,0,0,0,0
1564072629718.75,-22,-58,8,0,0,0,0,0
1564072629750,-29,-55,2,0,0,0,0,0
1564072629781.25,-32,-56,1,0,0,0,0,0
1564072629812.5,-35,-64,-7,0,0,0,0,0
1564072629843.75,-33,-69,-8,0,0,0,0,0
1564072629875,-27,-76,0,0,0,0,0,0
1564072629906.25,-12,-66,1,0,0,0,0,0
1564072629937.5,-12,-57,0,0,0,0,0,0
1564072629968.75,-20,-53,0,0,0,0,0,0
1564072630000,-25,-53,-2,0,0,0,0,0
1564072630031.25,-30,-51,3,0,0,0,0,0
1564072630062.5,-28,-51,6,0,0,0,0,0
1564072630093.75,-27,-55,16,0,0,0,0,0
1564072630125,-28,-58,22,0,0,0,0,0
1564072630156.25,-29,-55,27,0,0,0,0,0
1564072630187.5,-33,-49,25,0,0,0,0,0
1564072630218.75,-31,-36,24,0,0,0,0,0
1564072630250,-31,-32,25,0,0,0,0,0
1564072630281.25,-38,-31,26,0,0,0,0,0
1564072630312.5,-42,-34,23,0,0,0,0,0
1564072630343.75,-46,-37,23,0,0,0,0,0
1564072630375,-56,-41,24,0,0,0,0,0
1564072630406.25,-56,-41,25,0,0,0,0,0
1564072630437.5,-50,-40,22,0,0,0,0,0
1564072630468.75,-58,-42,17,0,0,0,0,0
1564072630500,-67,-61,16,0,0,0,0,0
1564072630531.25,-63,-74,19,0,0,0,0,0
1564072630562.5,-72,-104,20,0,0,0,0,0
1564072630593.75,-70,-117,18,0,0,0,0,0
1564072630625,-48,-112,11,0,0,0,0,0
1564072630656.25,-43,-97,7,0,0,0,0,0
1564072630687.5,-34,-68,-6,0,0,0,0,0
1564072630718.75,-27,-47,-13,0,0,0,0,0
1564072630750,-26,-41,-13,0,0,0,0,0
1564072630781.25,-21,-33,-9,0,0,0,0,0
1564072630812.5,-19,-29,-9,0,0,0,0,0
1564072630843.75,-24,-25,-13,0,0,0,0,0
1564072630875,-32,-25,-17,0,0,0,0,0
1564072630906.25,-39,-17,-30,0,0,0,0,0
1564072630937.5,-35,-23,-16,0,0,0,0,0
1564072630968.75,-45,-31,40,0,0,0,0,0
1564072631000,-34,-31,87,0,0,0,0,0
1564072631031.25,-23,-24,78,0,0,0,0,0
1564072631062.5,-11,-22,69,0,0,0,0,0
1564072631093.75,-44,-41,11,0,0,0,0,0
1564072631125,-128,-30,-7,0,0,0,0,0
1564072631156.25,-74,-8,19,0,0,0,0,0
1564072631187.5,-38,3,37,0,0,0,0,0
1564072631218.75,-45,3,27,0,0,0,0,0
1564072631250,-63,-8,19,0,0,0,0,0
1564072631281.25,-53,-13,25,0,0,0,0,0
1564072631312.5,-47,-16,37,0,0,0,0,0
1564072631343.75,-55,-14,37,0,0,0,0,0
1564072631375,-57,-12,24,0,0,0,0,0
1564072631406.25,-59,-10,14,0,0,0,0,0
1564072631437.5,-91,-15,-8,0,0,0,0,0
1564072631468.75,-95,-14,-8,0,0,0,0,0
1564072631500,-89,-17,11,0,0,0,0,0
1564072631531.25,-56,-38,47,0,0,0,0,0
1564072631562.5,-52,-48,52,0,0,0,0,0
1564072631593.75,-48,-45,34,0,0,0,0,0
1564072631625,-43,-35,19,0,0,0,0,0
1564072631656.25,-43,-24,9,0,0,0,0,0
1564072631687.5,-45,-22,7,0,0,0,0,0
1564072631718.75,-46,-24,11,0,0,0,0,0
1564072631750,-36,-24,12,0,0,0,0,0
1564072631781.25,-31,-25,1,0,0,0,0,0
1564072631812.5,-35,-22,-13,0,0,0,0,0
1564072631843.75,-53,-11,-58,0,0,0,0,0
1564072631875,-58,-25,-28,0,0,0,0,0
1564072631906.25,-56,-47,97,0,0,0,0,0
1564072631937.5,-36,-10,83,0,0,0,0,0
1564072631968.75,-17,-3,82,0,0,0,0,0
1564072632000,-4,-31,7,0,0,0,0,0
1564072632031.25,-66,-54,-4,0,0,0,0,0
1564072632062.5,-103,8,0,0,0,0,0,0
1564072632093.75,-70,5,-4,0,0,0,0,0
1564072632125,-72,-15,46,0,0,0,0,0
1564072632156.25,-54,-46,66,0,0,0,0,0
1564072632187.5,1,-42,73,0,0,0,0,0
1564072632218.75,-4,-33,48,0,0,0,0,0
1564072632250,-100,-37,-31,0,0,0,0,0
1564072632281.25,-119,-40,-35,0,0,0,0,0
1564072632312.5,-18,-27,0,0,0,0,0,0
1564072632343.75,-8,-22,-30,0,0,0,0,0
1564072632375,-45,-39,-13,0,0,0,0,0
1564072632406.25,-33,-61,47,0,0,0,0,0
1564072632437.5,-43,-49,37,0,0,0,0,0
1564072632468.75,-6,-36,52,0,0,0,0,0
1564072632500,-30,-51,29,0,0,0,0,0
1564072632531.25,-128,-92,-19,0,0,0,0,0
1564072632562.5,-121,-50,2,0,0,0,0,0
1564072632593.75,-10,-40,55,0,0,0,0,0
1564072632625,-18,-27,45,0,0,0,0,0
1564072632656.25,-54,-35,8,0,0,0,0,0
1564072632687.5,-53,-39,-4,0,0,0,0,0
1564072632718.75,-39,-40,-7,0,0,0,0,0
1564072632750,-50,-50,-19,0,0,0,0,0
1564072632781.25,-35,-49,-9,0,0,0,0,0
1564072632812.5,-11,-51,6,0,0,0,0,0
1564072632843.75,-31,-51,14,0,0,0,0,0
1564072632875,-65,-59,15,0,0,0,0,0
1564072632906.25,-91,-44,3,0,0,0,0,0
1564072632937.5,-76,-29,3,0,0,0,0,0
1564072632968.75,-70,-24,15,0,0,0,0,0
1564072633000,-66,-23,37,0,0,0,0,0
1564072633031.25,-67,-23,37,0,0,0,0,0
1564072633062.5,-61,-15,31,0,0,0,0,0
1564072633093.75,-60,-10,30,0,0,0,0,0
1564072633125,-58,-6,35,0,0,0,0,0
1564072633156.25,-50,-2,44,0,0,0,0,0
1564072633187.5,-61,4,54,0,0,0,0,0
1564072633218.75,-71,12,34,0,0,0,0,0
1564072633250,-75,15,16,0,0,0,0,0
1564072633281.25,-43,-12,24,0,0,0,0,0
1564072633312.5,-45,-23,20,0,0,0,0,0
1564072633343.75,-38,-23,10,0,0,0,0,0
1564072633375,-35,-20,5,0,0,0,0,0
1564072633406.25,-52,-14,-33,0,0,0,0,0
1564072633437.5,-50,-52,10,0,0,0,0,0
1564072633468.75,-30,-3,56,0,0,0,0,0
1564072633500,-45,-19,25,0,0,0,0,0
1564072633531.25,-60,-11,82,0,0,0,0,0
1564072633562.5,-64,-5,68,0,0,0,0,0
1564072633593.75,-49,-3,66,0,0,0,0,0
1564072633625,-45,-7,28,0,0,0,0,0
1564072633656.25,-44,-1,28,0,0,0,0,0
1564072633687.5,-41,9,22,0,0,0,0,0
1564072633718.75,-49,10,18,0,0,0,0,0
1564072633750,-46,10,26,0,0,0,0,0
1564072633781.25,-44,7,31,0,0,0,0,0
1564072633812.5,-34,10,32,0,0,0,0,0
1564072633843.75,-43,13,24,0,0,0,0,0
1564072633875,-35,8,17,0,0,0,0,0
1564072633906.25,-41,11,11,0,0,0,0,0
1564072633937.5,-35,1,0,0,0,0,0,0
1564072633968.75,-52,-11,-14,0,0,0,0,0
1564072634000,-63,-13,-22,0,0,0,0,0
1564072634031.25,-62,-15,-11,0,0,0,0,0
1564072634062.5,-76,-4,-12,0,0,0,0,0
1564072634093.75,-101,-11,8,0,0,0,0,0
1564072634125,-119,-7,34,0,0,0,0,0
1564072634156.25,-128,-23,46,0,0,0,0,0
1564072634187.5,-128,-17,41,0,0,0,0,0
1564072634218.75,-128,17,32,0,0,0,0,0
1564072634250,-128,25,35,0,0,0,0,0
1564072634281.25,-81,24,30,0,0,0,0,0
1564072634312.5,-57,21,19,0,0,0,0,0
1564072634343.75,-32,12,10,0,0,0,0,0
1564072634375,-30,5,4,0,0,0,0,0
1564072634406.25,-30,3,1,0,0,0,0,0
1564072634437.5,-40,-1,0,0,0,0,0,0
1564072634468.75,-53,-4,-1,0,0,0,0,0
1564072634500,-71,-10,3,0,0,0,0,0
1564072634531.25,-86,-9,7,0,0,0,0,0
1564072634562.5,-73,-4,18,0,0,0,0,0
1564072634593.75,-71,3,19,0,0,0,0,0
1564072634625,-62,7,40,0,0,0,0,0
1564072634656.25,-78,8,21,0,0,0,0,0
1564072634687.5,-64,12,30,0,0,0,0,0
1564072634718.75,-63,20,31,0,0,0,0,0
1564072634750,-55,10,27,0,0,0,0,0
1564072634781.25,-59,6,20,0,0,0,0,0
1564072634812.5,-57,-5,8,0,0,0,0,0
1564072634843.75,-47,-23,-11,0,0,0,0,0
1564072634875,-45,-33,-19,0,0,0,0,0
1564072634906.25,-52,-52,-21,0,0,0,0,0
1564072634937.5,-53,-51,-22,0,0,0,0,0
1564072634968.75,-34,-35,-19,0,0,0,0,0
1564072635000,-38,-34,-10,0,0,0,0,0
1564072635031.25,-57,-14,-1,0,0,0,0,0
1564072635062.5,-64,-17,13,0,0,0,0,0
1564072635093.75,-81,-7,76,0,0,0,0,0
1564072635125,-81,-1,54,0,0,0,0,0
1564072635156.25,-56,-2,73,0,0,0,0,0
1564072635187.5,-67,1,62,0,0,0,0,0
1564072635218.75,-76,4,34,0,0,0,0,0
1564072635250,-66,-3,9,0,0,0,0,0
1564072635281.25,-57,-10,9,0,0,0,0,0
1564072635312.5,-36,-20,15,0,0,0,0,0
1564072635343.75,-54,-32,20,0,0,0,0,0
1564072635375,-53,-37,19,0,0,0,0,0
1564072635406.25,-60,-35,11,0,0,0,0,0
1564072635437.5,-62,-41,6,0,0,0,0,0
1564072635468.75,-68,-43,8,0,0,0,0,0
1564072635500,-43,-38,10,0,0,0,0,0
1564072635531.25,-40,-37,9,0,0,0,0,0
1564072635562.5,-46,-44,22,0,0,0,0,0
1564072635593.75,-57,-47,36,0,0,0,0,0
1564072635625,-61,-45,39,0,0,0,0,0
1564072635656.25,-75,-29,16,0,0,0,0,0
1564072635687.5,-72,-21,14,0,0,0,0,0
1564072635718.75,-47,-10,36,0,0,0,0,0
1564072635750,-34,-9,38,0,0,0,0,0
1564072635781.25,-42,6,22,0,0,0,0,0
1564072635812.5,-29,-16,42,0,0,0,0,0
1564072635843.75,-21,-54,70,0,0,0,0,0
1564072635875,-58,-48,35,0,0,0,0,0
1564072635906.25,-22,1,19,0,0,0,0,0
1564072635937.5,-48,2,16,0,0,0,0,0
1564072635968.75,-63,-56,51,0,0,0,0,0
1564072636000,-59,-88,77,0,0,0,0,0
1564072636031.25,-52,-78,28,0,0,0,0,0
1564072636062.5,-19,-28,-5,0,0,0,0,0
1564072636093.75,-8,30,-16,0,0,0,0,0
1564072636125,-15,24,-12,0,0,0,0,0
1564072636156.25,-22,12,-8,0,0,0,0,0
1564072636187.5,-128,-47,72,0,0,0,0,0
1564072636218.75,-34,-39,106,0,0,0,0,0
1564072636250,-43,-35,61,0,0,0,0,0
1564072636281.25,-46,-38,38,0,0,0,0,0
1564072636312.5,-42,-40,27,0,0,0,0,0
1564072636343.75,-43,-51,39,0,0,0,0,0
1564072636375,-23,-59,60,0,0,0,0,0
1564072636406.25,-23,-44,32,0,0,0,0,0
1564072636437.5,-68,-6,-35,0,0,0,0,0
1564072636468.75,-70,-5,15,0,0,0,0,0
1564072636500,-56,-25,8,0,0,0,0,0
1564072636531.25,-60,-72,59,0,0,0,0,0
1564072636562.5,-48,-51,55,0,0,0,0,0
1564072636593.75,-20,0,24,0,0,0,0,0
1564072636625,-8,8,10,0,0,0,0,0
1564072636656.25,-50,3,-3,0,0,0,0,0
1564072636687.5,-119,-16,21,0,0,0,0,0
1564072636718.75,-15,-83,113,0,0,0,0,0
1564072636750,-30,-59,48,0,0,0,0,0
1564072636781.25,22,-1,3,0,0,0,0,0
1564072636812.5,26,7,0,0,0,0,0,0
1564072636843.75,-62,-42,16,0,0,0,0,0
1564072636875,-80,-21,71,0,0,0,0,0
1564072636906.25,-34,-26,27,0,0,0,0,0
1564072636937.5,-18,-49,46,0,0,0,0,0
1564072636968.75,-14,-49,51,0,0,0,0,0
1564072637000,-21,-44,47,0,0,0,0,0
1564072637031.25,-48,-39,26,0,0,0,0,0
1564072637062.5,-57,-26,14,0,0,0,0,0
1564072637093.75,-55,-25,17,0,0,0,0,0
1564072637125,-40,-32,34,0,0,0,0,0
1564072637156.25,-39,-35,36,0,0,0,0,0
1564072637187.5,-42,-41,37,0,0,0,0,0
1564072637218.75,-45,-41,36,0,0,0,0,0
1564072637250,-44,-40,32,0,0,0,0,0
1564072637281.25,-40,-37,31,0,0,0,0,0
1564072637312.5,-37,-36,31,0,0,0,0,0
1564072637343.75,-35,-36,32,0,0,0,0,0
1564072637375,-35,-37,33,0,0,0,0,0
1564072637406.25,-38,-37,33,0,0,0,0,0
1564072637437.5,-41,-38,33,0,0,0,0,0
1564072637468.75,-43,-38,33,0,0,0,0,0
1564072637500,-43,-36,33,0,0,0,0,0
1564072637531.25,-40,-33,33,0,0,0,0,0
1564072637562.5,-37,-31,32,0,0,0,0,0
1564072637593.75,-41,-30,31,0,0,0,0,0
1564072637625,-48,-34,33,0,0,0,0,0
1564072637656.25,-40,-37,40,0,0,0,0,0
1564072637687.5,-33,-39,36,0,0,0,0,0
1564072637718.75,-35,-40,34,0,0,0,0,0
1564072637750,-40,-43,28,0,0,0,0,0
1564072637781.25,-39,-43,28,0,0,0,0,0
1564072637812.5,-35,-42,29,0,0,0,0,0
1564072637843.75,-34,-41,30,0,0,0,0,0
1564072637875,-38,-38,31,0,0,0,0,0
1564072637906.25,-41,-37,32,0,0,0,0,0
1564072637937.5,-41,-35,35,0,0,0,0,0
1564072637968.75,-39,-34,37,0,0,0,0,0
1564072638000,-36,-35,38,0,0,0,0,0
1564072638031.25,-35,-33,36,0,0,0,0,0
1564072638062.5,-37,-34,35,0,0,0,0,0
1564072638093.75,-40,-39,37,0,0,0,0,0
1564072638125,-38,-40,37,0,0,0,0,0
1564072638156.25,-36,-40,35,0,0,0,0,0
1564072638187.5,-37,-40,33,0,0,0,0,0
1564072638218.75,-39,-39,32,0,0,0,0,0
1564072638250,-39,-39,32,0,0,0,0,0
1564072638281.25,-38,-38,33,0,0,0,0,0
1564072638312.5,-38,-38,33,0,0,0,0,0
1564072638343.75,-39,-38,33,0,0,0,0,0
1564072638375,-40,-39,34,0,0,0,0,0
1564072638406.25,-39,-38,34,0,0,0,0,0
1564072638437.5,-37,-38,34,0,0,0,0,0
1564072638468.75,-37,-36,33,0,0,0,0,0
1564072638500,-39,-37,35,0,0,0,0,0
1564072638531.25,-38,-37,35,0,0,0,0,0
1564072638562.5,-38,-38,36,0,0,0,0,0
1564072638593.75,-38,-39,36,0,0,0,0,0
1564072638625,-36,-37,35,0,0,0,0,0
1564072638656.25,-36,-36,33,0,0,0,0,0
1564072638687.5,-39,-34,34,0,0,0,0,0
1564072638718.75,-39,-33,36,0,0,0,0,0
1564072638750,-38,-32,39,0,0,0,0,0
1564072638781.25,-38,-32,39,0,0,0,0,0
1564072638812.5,-37,-34,39,0,0,0,0,0
1564072638843.75,-37,-35,38,0,0,0,0,0
1564072638875,-39,-37,35,0,0,0,0,0
1564072638906.25,-39,-38,32,0,0,0,0,0
1564072638937.5,-39,-38,31,0,0,0,0,0
1564072638968.75,-39,-38,32,0,0,0,0,0
1564072639000,-41,-37,33,0,0,0,0,0
1564072639031.25,-42,-36,32,0,0,0,0,0
1564072639062.5,-42,-35,33,0,0,0,0,0
1564072639093.75,-41,-33,35,0,0,0,0,0
1564072639125,-41,-33,36,0,0,0,0,0
1564072639156.25,-41,-34,35,0,0,0,0,0
1564072639187.5,-41,-34,36,0,0,0,0,0
1564072639218.75,-40,-35,35,0,0,0,0,0
1564072639250,-40,-35,35,0,0,0,0,0
1564072639281.25,-41,-37,33,0,0,0,0,0
1564072639312.5,-41,-37,32,0,0,0,0,0
1564072639343.75,-41,-37,31,0,0,0,0,0
1564072639375,-41,-36,28,0,0,0,0,0
1564072639406.25,-42,-36,28,0,0,0,0,0
1564072639437.5,-42,-36,30,0,0,0,0,0
1564072639468.75,-42,-36,31,0,0,0,0,0
1564072639500,-41,-37,32,0,0,0,0,0
1564072639531.25,-41,-37,32,0,0,0,0,0
1564072639562.5,-41,-36,31,0,0,0,0,0
1564072639593.75,-42,-36,31,0,0,0,0,0
1564072639625,-41,-36,32,0,0,0,0,0
1564072639656.25,-41,-36,32,0,0,0,0,0
1564072639687.5,-41,-36,32,0,0,0,0,0
1564072639718.75,-41,-36,31,0,0,0,0,0
1564072639750,-42,-36,31,0,0,0,0,0
1564072639781.25,-42,-36,32,0,0,0,0,0
1564072639812.5,-41,-36,33,0,0,0,0,0
1564072639843.75,-40,-35,32,0,0,0,0,0
1564072639875,-41,-36,32,0,0,0,0,0
1564072639906.25,-40,-36,31,0,0,0,0,0
1564072639937.5,-40,-36,31,0,0,0,0,0
1564072639968.75,-39,-36,32,0,0,0,0,0
1564072640000,-40,-37,34,0,0,0,0,0
1564072640031.25,-44,-36,33,0,0,0,0,0
1564072640062.5,-44,-36,33,0,0,0,0,0
1564072640093.75,-42,-36,32,0,0,0,0,0
1564072640125,-40,-36,30,0,0,0,0,0
1564072640156.25,-40,-36,30,0,0,0,0,0
1564072640187.5,-40,-37,30,0,0,0,0,0
1564072640218.75,-39,-37,31,0,0,0,0,0
1564072640250,-40,-37,33,0,0,0,0,0
1564072640281.25,-41,-37,34,0,0,0,0,0
1564072640312.5,-41,-36,32,0,0,0,0,0
1564072640343.75,-41,-36,31,0,0,0,0,0
1564072640375,-41,-36,31,0,0,0,0,0
1564072640406.25,-41,-36,31,0,0,0,0,0
1564072640437.5,-41,-36,32,0,0,0,0,0
1564072640468.75,-41,-36,33,0,0,0,0,0
1564072640500,-41,-36,33,0,0,0,0,0
1564072640531.25,-41,-36,32,0,0,0,0,0
1564072640562.5,-42,-36,32,0,0,0,0,0
1564072640593.75,-41,-36,33,0,0,0,0,0
1564072640625,-41,-36,32,0,0,0,0,0
1564072640656.25,-41,-36,31,0,0,0,0,0
1564072640687.5,-41,-36,31,0,0,0,0,0
1564072640718.75,-42,-36,32,0,0,0,0,0
1564072640750,-41,-36,32,0,0,0,0,0
1564072640781.25,-41,-36,32,0,0,0,0,0
1564072640812.5,-41,-36,32,0,0,0,0,0
1564072640843.75,-41,-36,32,0,0,0,0,0
1564072640875,-41,-36,32,0,0,0,0,0
1564072640906.25,-41,-36,32,0,0,0,0,0
1564072640937.5,-41,-36,33,0,0,0,0,0
1564072640968.75,-41,-36,32,0,0,0,0,0
1564072641000,-41,-35,33,0,0,0,0,0
1564072641031.25,-41,-35,33,0,0,0,0,0
1564072641062.5,-41,-35,32,0,0,0,0,0
1564072641093.75,-41,-35,32,0,0,0,0,0
1564072641125,-39,-36,32,0,0,0,0,0
1564072641156.25,-38,-37,33,0,0,0,0,0
1564072641187.5,-42,-37,32,0,0,0,0,0
1564072641218.75,-45,-37,32,0,0,0,0,0
1564072641250,-44,-36,35,0,0,0,0,0
1564072641281.25,-42,-35,35,0,0,0,0,0
1564072641312.5,-41,-35,33,0,0,0,0,0
1564072641343.75,-45,-39,33,0,0,0,0,0
1564072641375,-43,-40,34,0,0,0,0,0
1564072641406.25,-42,-41,38,0,0,0,0,0
1564072641437.5,-38,-39,40,0,0,0,0,0
1564072641468.75,-43,-37,36,0,0,0,0,0
1564072641500,-41,-35,35,0,0,0,0,0
1564072641531.25,-34,-33,39,0,0,0,0,0
1564072641562.5,-52,-31,33,0,0,0,0,0
1564072641593.75,-50,-26,26,0,0,0,0,0
1564072641625,-47,-26,26,0,0,0,0,0
1564072641656.25,-50,-25,25,0,0,0,0,0
1564072641687.5,-52,-26,25,0,0,0,0,0
1564072641718.75,-48,-26,29,0,0,0,0,0
1564072641750,-50,-24,28,0,0,0,0,0
1564072641781.25,-47,-23,32,0,0,0,0,0
1564072641812.5,-43,-22,31,0,0,0,0,0
1564072641843.75,-47,-22,26,0,0,0,0,0
1564072641875,-50,-22,26,0,0,0,0,0
1564072641906.25,-51,-22,27,0,0,0,0,0
1564072641937.5,-49,-25,30,0,0,0,0,0
1564072641968.75,-51,-24,31,0,0,0,0,0
1564072642000,-46,-22,35,0,0,0,0,0
1564072642031.25,-44,-20,34,0,0,0,0,0
1564072642062.5,-44,-18,35,0,0,0,0,0
1564072642093.75,-43,-17,31,0,0,0,0,0
1564072642125,-38,-16,26,0,0,0,0,0
1564072642156.25,-40,-21,28,0,0,0,0,0
1564072642187.5,-43,-24,28,0,0,0,0,0
1564072642218.75,-33,-25,40,0,0,0,0,0
1564072642250,-31,-31,50,0,0,0,0,0
1564072642281.25,-43,-37,48,0,0,0,0,0
1564072642312.5,-47,-40,51,0,0,0,0,0
1564072642343.75,-47,-40,47,0,0,0,0,0
1564072642375,-48,-38,43,0,0,0,0,0
1564072642406.25,-42,-34,36,0,0,0,0,0
1564072642437.5,-38,-33,35,0,0,0,0,0
1564072642468.75,-36,-34,33,0,0,0,0,0
1564072642500,-36,-35,33,0,0,0,0,0
1564072642531.25,-39,-38,38,0,0,0,0,0
1564072642562.5,-37,-36,37,0,0,0,0,0
1564072642593.75,-38,-36,37,0,0,0,0,0
1564072642625,-40,-36,37,0,0,0,0,0
1564072642656.25,-40,-36,37,0,0,0,0,0
1564072642687.5,-40,-36,37,0,0,0,0,0
1564072642718.75,-39,-36,36,0,0,0,0,0
1564072642750,-37,-35,36,0,0,0,0,0
1564072642781.25,-37,-35,36,0,0,0,0,0
1564072642812.5,-39,-35,36,0,0,0,0,0
1564072642843.75,-39,-36,36,0,0,0,0,0
1564072642875,-39,-36,37,0,0,0,0,0
1564072642906.25,-38,-36,37,0,0,0,0,0
1564072642937.5,-37,-35,37,0,0,0,0,0
1564072642968.75,-37,-34,36,0,0,0,0,0
1564072643000,-38,-34,37,0,0,0,0,0
1564072643031.25,-39,-35,37,0,0,0,0,0
1564072643062.5,-38,-35,37,0,0,0,0,0
1564072643093.75,-38,-35,36,0,0,0,0,0
1564072643125,-39,-36,36,0,0,0,0,0
1564072643156.25,-39,-35,37,0,0,0,0,0
1564072643187.5,-38,-35,37,0,0,0,0,0
1564072643218.75,-37,-35,36,0,0,0,0,0
1564072643250,-37,-34,35,0,0,0,0,0
1564072643281.25,-39,-35,37,0,0,0,0,0
1564072643312.5,-39,-35,37,0,0,0,0,0
1564072643343.75,-37,-35,37,0,0,0,0,0
1564072643375,-38,-35,36,0,0,0,0,0
1564072643406.25,-39,-35,37,0,0,0,0,0
1564072643437.5,-38,-34,37,0,0,0,0,0
1564072643468.75,-37,-34,37,0,0,0,0,0
1564072643500,-39,-35,37,0,0,0,0,0
1564072643531.25,-38,-34,36,0,0,0,0,0
1564072643562.5,-39,-35,36,0,0,0,0,0
1564072643593.75,-38,-35,37,0,0,0,0,0
1564072643625,-39,-35,37,0,0,0,0,0
1564072643656.25,-39,-35,37,0,0,0,0,0
1564072643687.5,-38,-35,36,0,0,0,0,0
1564072643718.75,-38,-35,36,0,0,0,0,0
1564072643750,-39,-34,36,0,0,0,0,0
1564072643781.25,-38,-34,36,0,0,0,0,0
1564072643812.5,-38,-35,36,0,0,0,0,0
1564072643843.75,-39,-35,36,0,0,0,0,0
1564072643875,-39,-35,36,0,0,0,0,0
1564072643906.25,-39,-34,37,0,0,0,0,0
1564072643937.5,-39,-34,37,0,0,0,0,0
1564072643968.75,-39,-34,37,0,0,0,0,0
1564072644000,-39,-34,37,0,0,0,0,0
1564072644031.25,-39,-35,36,0,0,0,0,0
1564072644062.5,-38,-35,36,0,0,0,0,0
1564072644093.75,-39,-35,35,0,0,0,0,0
1564072644125,-39,-35,37,0,0,0,0,0
1564072644156.25,-39,-35,37,0,0,0,0,0
1564072644187.5,-39,-34,35,0,0,0,0,0
1564072644218.75,-39,-34,35,0,0,0,0,0
1564072644250,-39,-35,36,0,0,0,0,0
1564072644281.25,-39,-34,36,0,0,0,0,0
1564072644312.5,-40,-34,35,0,0,0,0,0
1564072644343.75,-41,-35,36,0,0,0,0,0
1564072644375,-40,-34,36,0,0,0,0,0
1564072644406.25,-39,-34,35,0,0,0,0,0
1564072644437.5,-41,-34,36,0,0,0,0,0
1564072644468.75,-41,-34,36,0,0,0,0,0
1564072644500,-41,-34,35,0,0,0,0,0
1564072644531.25,-39,-33,35,0,0,0,0,0
1564072644562.5,-41,-33,35,0,0,0,0,0
1564072644593.75,-42,-33,34,0,0,0,0,0
1564072644625,-40,-32,36,0,0,0,0,0
1564072644656.25,-41,-33,38,0,0,0,0,0
1564072644687.5,-41,-33,38,0,0,0,0,0
1564072644718.75,-40,-33,36,0,0,0,0,0
1564072644750,-40,-34,35,0,0,0,0,0
1564072644781.25,-40,-34,35,0,0,0,0,0
1564072644812.5,-39,-34,37,0,0,0,0,0
1564072644843.75,-39,-34,36,0,0,0,0,0
1564072644875,-39,-33,36,0,0,0,0,0
1564072644906.25,-40,-32,37,0,0,0,0,0
1564072644937.5,-40,-32,37,0,0,0,0,0
1564072644968.75,-41,-32,38,0,0,0,0,0
1564072645000,-41,-32,37,0,0,0,0,0
1564072645031.25,-40,-32,38,0,0,0,0,0
1564072645062.5,-40,-34,37,0,0,0,0,0
1564072645093.75,-41,-35,37,0,0,0,0,0
1564072645125,-41,-35,36,0,0,0,0,0
1564072645156.25,-40,-35,37,0,0,0,0,0
1564072645187.5,-40,-34,36,0,0,0,0,0
1564072645218.75,-39,-32,35,0,0,0,0,0
1564072645250,-41,-30,35,0,0,0,0,0
1564072645281.25,-41,-29,35,0,0,0,0,0
1564072645312.5,-41,-29,36,0,0,0,0,0
1564072645343.75,-42,-29,37,0,0,0,0,0
1564072645375,-41,-29,38,0,0,0,0,0
1564072645406.25,-42,-29,38,0,0,0,0,0
1564072645437.5,-41,-30,37,0,0,0,0,0
1564072645468.75,-41,-30,37,0,0,0,0,0
1564072645500,-41,-30,37,0,0,0,0,0
1564072645531.25,-40,-30,38,0,0,0,0,0
1564072645562.5,-40,-30,38,0,0,0,0,0
1564072645593.75,-40,-30,38,0,0,0,0,0
1564072645625,-40,-30,38,0,0,0,0,0
1564072645656.25,-41,-31,39,0,0,0,0,0
1564072645687.5,-41,-31,39,0,0,0,0,0
1564072645718.75,-40,-30,37,0,0,0,0,0
1564072645750,-40,-30,37,0,0,0,0,0
1564072645781.25,-40,-30,37,0,0,0,0,0
1564072645812.5,-40,-30,37,0,0,0,0,0
1564072645843.75,-41,-31,38,0,0,0,0,0
1564072645875,-40,-31,38,0,0,0,0,0
1564072645906.25,-40,-31,38,0,0,0,0,0
1564072645937.5,-40,-31,37,0,0,0,0,0
1564072645968.75,-40,-31,37,0,0,0,0,0
1564072646000,-40,-31,38,0,0,0,0,0
1564072646031.25,-40,-31,38,0,0,0,0,0
1564072646062.5,-40,-31,38,0,0,0,0,0
1564072646093.75,-40,-31,38,0,0,0,0,0
1564072646125,-41,-31,39,0,0,0,0,0
1564072646156.25,-41,-31,40,0,0,0,0,0
1564072646187.5,-41,-32,40,0,0,0,0,0
1564072646218.75,-40,-33,41,0,0,0,0,0
1564072646250,-40,-35,41,0,0,0,0,0
1564072646281.25,-47,-41,49,0,0,0,0,0
1564072646312.5,-49,-43,52,0,0,0,0,0
1564072646343.75,-44,-38,50,0,0,0,0,0
1564072646375,-40,-33,44,0,0,0,0,0
1564072646406.25,-36,-25,33,0,0,0,0,0
1564072646437.5,-37,-23,31,0,0,0,0,0
1564072646468.75,-33,-23,29,0,0,0,0,0
1564072646500,-32,-22,22,0,0,0,0,0
1564072646531.25,-55,-13,22,0,0,0,0,0
1564072646562.5,-45,-11,31,0,0,0,0,0
1564072646593.75,-34,-7,45,0,0,0,0,0
1564072646625,-37,-7,47,0,0,0,0,0
1564072646656.25,-41,-8,41,0,0,0,0,0
1564072646687.5,-35,-8,39,0,0,0,0,0
1564072646718.75,-27,-6,40,0,0,0,0,0
1564072646750,-32,-30,5,0,0,0,0,0
1564072646781.25,-62,-45,30,0,0,0,0,0
1564072646812.5,-24,-52,60,0,0,0,0,0
1564072646843.75,-28,-49,63,0,0,0,0,0
1564072646875,-35,-42,54,0,0,0,0,0
1564072646906.25,-32,-37,49,0,0,0,0,0
1564072646937.5,-30,-31,44,0,0,0,0,0
1564072646968.75,-32,-33,41,0,0,0,0,0
1564072647000,-35,-38,41,0,0,0,0,0
1564072647031.25,-32,-38,43,0,0,0,0,0
1564072647062.5,-29,-37,44,0,0,0,0,0
1564072647093.75,-33,-38,46,0,0,0,0,0
1564072647125,-33,-36,43,0,0,0,0,0
1564072647156.25,-33,-35,42,0,0,0,0,0
1564072647187.5,-33,-35,43,0,0,0,0,0
1564072647218.75,-33,-35,41,0,0,0,0,0
1564072647250,-32,-36,40,0,0,0,0,0
1564072647281.25,-30,-36,40,0,0,0,0,0
1564072647312.5,-31,-36,40,0,0,0,0,0
1564072647343.75,-31,-35,41,0,0,0,0,0
1564072647375,-32,-35,41,0,0,0,0,0
1564072647406.25,-32,-35,41,0,0,0,0,0
1564072647437.5,-32,-35,42,0,0,0,0,0
1564072647468.75,-28,-39,45,0,0,0,0,0
1564072647500,-38,-43,46,0,0,0,0,0
1564072647531.25,-38,-44,56,0,0,0,0,0
1564072647562.5,-45,-51,66,0,0,0,0,0
1564072647593.75,-38,-55,73,0,0,0,0,0
1564072647625,-20,-52,41,0,0,0,0,0
1564072647656.25,-47,-37,35,0,0,0,0,0
1564072647687.5,-10,-14,5,0,0,0,0,0
1564072647718.75,-22,-3,-26,0,0,0,0,0
1564072647750,-76,8,-20,0,0,0,0,0
1564072647781.25,-49,5,-9,0,0,0,0,0
1564072647812.5,-13,-20,10,0,0,0,0,0
1564072647843.75,-7,-30,32,0,0,0,0,0
1564072647875,-48,-37,71,0,0,0,0,0
1564072647906.25,-63,-30,45,0,0,0,0,0
1564072647937.5,-36,-19,34,0,0,0,0,0
1564072647968.75,-16,-65,111,0,0,0,0,0
1564072648000,-40,-42,96,0,0,0,0,0
1564072648031.25,-64,-24,20,0,0,0,0,0
1564072648062.5,-33,-15,42,0,0,0,0,0
1564072648093.75,-41,-21,22,0,0,0,0,0
1564072648125,-29,-7,2,0,0,0,0,0
1564072648156.25,-85,-41,57,0,0,0,0,0
1564072648187.5,-48,-42,88,0,0,0,0,0
1564072648218.75,-41,-10,10,0,0,0,0,0
1564072648250,-46,-5,26,0,0,0,0,0
1564072648281.25,-44,-8,6,0,0,0,0,0
1564072648312.5,-58,-31,10,0,0,0,0,0
1564072648343.75,-40,-51,63,0,0,0,0,0
1564072648375,-6,-39,96,0,0,0,0,0
1564072648406.25,-25,-31,70,0,0,0,0,0
1564072648437.5,-36,-29,38,0,0,0,0,0
1564072648468.75,-40,-27,32,0,0,0,0,0
1564072648500,-40,-25,32,0,0,0,0,0
1564072648531.25,-37,-28,39,0,0,0,0,0
1564072648562.5,-31,-31,46,0,0,0,0,0
1564072648593.75,-28,-31,46,0,0,0,0,0
1564072648625,-31,-32,46,0,0,0,0,0
1564072648656.25,-32,-32,45,0,0,0,0,0
1564072648687.5,-36,-35,47,0,0,0,0,0
1564072648718.75,-34,-33,46,0,0,0,0,0
1564072648750,-30,-30,43,0,0,0,0,0
1564072648781.25,-33,-29,42,0,0,0,0,0
1564072648812.5,-35,-31,44,0,0,0,0,0
1564072648843.75,-35,-31,43,0,0,0,0,0
1564072648875,-35,-31,42,0,0,0,0,0
1564072648906.25,-34,-33,43,0,0,0,0,0
1564072648937.5,-34,-33,43,0,0,0,0,0
1564072648968.75,-34,-32,45,0,0,0,0,0
1564072649000,-32,-31,45,0,0,0,0,0
1564072649031.25,-32,-30,44,0,0,0,0,0
1564072649062.5,-34,-30,45,0,0,0,0,0
1564072649093.75,-35,-31,45,0,0,0,0,0
1564072649125,-33,-31,44,0,0,0,0,0
1564072649156.25,-34,-31,44,0,0,0,0,0
1564072649187.5,-34,-30,43,0,0,0,0,0
1564072649218.75,-33,-30,43,0,0,0,0,0
1564072649250,-33,-32,44,0,0,0,0,0
1564072649281.25,-33,-33,44,0,0,0,0,0
1564072649312.5,-35,-34,45,0,0,0,0,0
1564072649343.75,-34,-35,45,0,0,0,0,0
1564072649375,-40,-37,50,0,0,0,0,0
1564072649406.25,-50,-42,60,0,0,0,0,0
1564072649437.5,-56,-38,83,0,0,0,0,0
1564072649468.75,-29,-29,70,0,0,0,0,0
1564072649500,-41,-13,22,0,0,0,0,0
1564072649531.25,-3,-3,17,0,0,0,0,0
1564072649562.5,-54,-10,21,0,0,0,0,0
1564072649593.75,-41,-9,17,0,0,0,0,0
1564072649625,-41,-22,29,0,0,0,0,0
1564072649656.25,-53,-44,12,0,0,0,0,0
1564072649687.5,-67,-35,19,0,0,0,0,0
1564072649718.75,-31,-13,66,0,0,0,0,0
1564072649750,-49,-9,61,0,0,0,0,0
1564072649781.25,2,-10,87,0,0,0,0,0
1564072649812.5,10,-38,61,0,0,0,0,0
1564072649843.75,-105,-15,46,0,0,0,0,0
1564072649875,16,-42,72,0,0,0,0,0
1564072649906.25,-4,-18,56,0,0,0,0,0
1564072649937.5,-33,-29,31,0,0,0,0,0
1564072649968.75,-8,-18,2,0,0,0,0,0
1564072650000,-76,-68,80,0,0,0,0,0
1564072650031.25,-84,-53,101,0,0,0,0,0
1564072650062.5,-91,-18,-12,0,0,0,0,0
1564072650093.75,-2,-5,31,0,0,0,0,0
1564072650125,-30,4,-26,0,0,0,0,0
1564072650156.25,-30,-23,-7,0,0,0,0,0
1564072650187.5,4,-41,127,0,0,0,0,0
1564072650218.75,-17,-32,127,0,0,0,0,0
1564072650250,-58,-51,-67,0,0,0,0,0
1564072650281.25,-75,-9,1,0,0,0,0,0
1564072650312.5,-19,-22,31,0,0,0,0,0
1564072650343.75,-36,-9,24,0,0,0,0,0
1564072650375,-31,-8,15,0,0,0,0,0
1564072650406.25,-44,-26,36,0,0,0,0,0
1564072650437.5,-26,-23,99,0,0,0,0,0
1564072650468.75,-5,-22,41,0,0,0,0,0
1564072650500,-61,-16,-13,0,0,0,0,0
1564072650531.25,-40,-41,43,0,0,0,0,0
1564072650562.5,-17,-53,74,0,0,0,0,0
1564072650593.75,-34,-43,55,0,0,0,0,0
1564072650625,-21,-39,46,0,0,0,0,0
1564072650656.25,-20,-30,37,0,0,0,0,0
1564072650687.5,-26,-26,31,0,0,0,0,0
1564072650718.75,-50,-23,30,0,0,0,0,0
1564072650750,-54,-29,42,0,0,0,0,0
1564072650781.25,-48,-31,43,0,0,0,0,0
1564072650812.5,-35,-38,46,0,0,0,0,0
1564072650843.75,-33,-42,48,0,0,0,0,0
1564072650875,-33,-42,43,0,0,0,0,0
1564072650906.25,-32,-40,41,0,0,0,0,0
1564072650937.5,-36,-33,37,0,0,0,0,0
1564072650968.75,-38,-31,38,0,0,0,0,0
1564072651000,-35,-30,41,0,0,0,0,0
1564072651031.25,-33,-30,40,0,0,0,0,0
1564072651062.5,-37,-33,39,0,0,0,0,0
1564072651093.75,-37,-35,40,0,0,0,0,0
1564072651125,-26,-30,36,0,0,0,0,0
1564072651156.25,-33,-31,39,0,0,0,0,0
1564072651187.5,-38,-37,43,0,0,0,0,0
1564072651218.75,-32,-35,42,0,0,0,0,0
1564072651250,-35,-36,43,0,0,0,0,0
1564072651281.25,-38,-42,45,0,0,0,0,0
1564072651312.5,-32,-44,40,0,0,0,0,0
1564072651343.75,-32,-46,34,0,0,0,0,0
1564072651375,-33,-44,34,0,0,0,0,0
1564072651406.25,-34,-40,36,0,0,0,0,0
1564072651437.5,-38,-38,39,0,0,0,0,0
1564072651468.75,-29,-37,41,0,0,0,0,0
1564072651500,-26,-36,36,0,0,0,0,0
1564072651531.25,-29,-38,35,0,0,0,0,0
1564072651562.5,-32,-41,38,0,0,0,0,0
1564072651593.75,-32,-40,36,0,0,0,0,0
1564072651625,-38,-38,38,0,0,0,0,0
1564072651656.25,-37,-38,41,0,0,0,0,0
1564072651687.5,-34,-38,43,0,0,0,0,0
1564072651718.75,-33,-38,43,0,0,0,0,0
1564072651750,-31,-34,39,0,0,0,0,0
1564072651781.25,-32,-32,38,0,0,0,0,0
1564072651812.5,-33,-33,41,0,0,0,0,0
1564072651843.75,-33,-34,42,0,0,0,0,0
1564072651875,-34,-36,40,0,0,0,0,0
1564072651906.25,-34,-37,39,0,0,0,0,0
1564072651937.5,-32,-39,38,0,0,0,0,0
1564072651968.75,-32,-39,38,0,0,0,0,0
1564072652000,-32,-38,38,0,0,0,0,0
1564072652031.25,-34,-37,38,0,0,0,0,0
1564072652062.5,-35,-37,39,0,0,0,0,0
1564072652093.75,-35,-36,41,0,0,0,0,0
1564072652125,-35,-36,41,0,0,0,0,0
1564072652156.25,-35,-37,39,0,0,0,0,0
1564072652187.5,-34,-36,37,0,0,0,0,0
1564072652218.75,-33,-37,37,0,0,0,0,0
1564072652250,-32,-37,38,0,0,0,0,0
1564072652281.25,-34,-37,39,0,0,0,0,0
1564072652312.5,-34,-37,39,0,0,0,0,0
1564072652343.75,-34,-36,40,0,0,0,0,0
1564072652375,-33,-34,40,0,0,0,0,0
1564072652406.25,-35,-34,39,0,0,0,0,0
1564072652437.5,-35,-35,40,0,0,0,0,0
1564072652468.75,-35,-35,39,0,0,0,0,0
1564072652500,-34,-36,39,0,0,0,0,0
1564072652531.25,-34,-37,39,0,0,0,0,0
1564072652562.5,-35,-39,40,0,0,0,0,0
1564072652593.75,-33,-39,39,0,0,0,0,0
1564072652625,-31,-37,36,0,0,0,0,0
1564072652656.25,-32,-37,36,0,0,0,0,0
1564072652687.5,-32,-38,38,0,0,0,0,0
1564072652718.75,-30,-38,38,0,0,0,0,0
1564072652750,-34,-38,37,0,0,0,0,0
1564072652781.25,-34,-39,40,0,0,0,0,0
1564072652812.5,-30,-39,40,0,0,0,0,0
1564072652843.75,-30,-43,43,0,0,0,0,0
1564072652875,-29,-45,43,0,0,0,0,0
1564072652906.25,-25,-42,39,0,0,0,0,0
1564072652937.5,-26,-40,38,0,0,0,0,0
1564072652968.75,-28,-40,42,0,0,0,0,0
1564072653000,-26,-37,40,0,0,0,0,0
1564072653031.25,-28,-38,44,0,0,0,0,0
1564072653062.5,-28,-39,45,0,0,0,0,0
1564072653093.75,-26,-39,45,0,0,0,0,0
1564072653125,-28,-38,43,0,0,0,0,0
1564072653156.25,-29,-39,43,0,0,0,0,0
1564072653187.5,-29,-39,43,0,0,0,0,0
1564072653218.75,-23,-39,41,0,0,0,0,0
1564072653250,-27,-40,40,0,0,0,0,0
1564072653281.25,-28,-41,40,0,0,0,0,0
1564072653312.5,-26,-40,39,0,0,0,0,0
1564072653343.75,-28,-40,40,0,0,0,0,0
1564072653375,-29,-39,41,0,0,0,0,0
1564072653406.25,-27,-38,40,0,0,0,0,0
1564072653437.5,-27,-38,44,0,0,0,0,0
1564072653468.75,-28,-37,41,0,0,0,0,0
1564072653500,-29,-36,42,0,0,0,0,0
1564072653531.25,-30,-37,43,0,0,0,0,0
1564072653562.5,-27,-38,43,0,0,0,0,0
1564072653593.75,-31,-37,42,0,0,0,0,0
1564072653625,-31,-38,43,0,0,0,0,0
1564072653656.25,-28,-37,41,0,0,0,0,0
1564072653687.5,-29,-37,40,0,0,0,0,0
1564072653718.75,-29,-38,42,0,0,0,0,0
1564072653750,-28,-38,42,0,0,0,0,0
1564072653781.25,-30,-38,40,0,0,0,0,0
1564072653812.5,-32,-38,41,0,0,0,0,0
1564072653843.75,-30,-38,41,0,0,0,0,0
1564072653875,-30,-38,42,0,0,0,0,0
1564072653906.25,-30,-39,42,0,0,0,0,0
1564072653937.5,-30,-39,41,0,0,0,0,0
1564072653968.75,-31,-37,40,0,0,0,0,0
1564072654000,-30,-38,42,0,0,0,0,0
1564072654031.25,-29,-38,42,0,0,0,0,0
1564072654062.5,-30,-38,40,0,0,0,0,0
1564072654093.75,-30,-38,41,0,0,0,0,0
1564072654125,-30,-38,42,0,0,0,0,0
1564072654156.25,-29,-38,42,0,0,0,0,0
1564072654187.5,-29,-37,41,0,0,0,0,0
1564072654218.75,-30,-37,40,0,0,0,0,0
1564072654250,-30,-38,41,0,0,0,0,0
1564072654281.25,-30,-39,42,0,0,0,0,0
1564072654312.5,-29,-38,40,0,0,0,0,0
1564072654343.75,-30,-38,40,0,0,0,0,0
1564072654375,-30,-40,42,0,0,0,0,0
1564072654406.25,-29,-39,41,0,0,0,0,0
1564072654437.5,-29,-38,39,0,0,0,0,0
1564072654468.75,-30,-40,41,0,0,0,0,0
1564072654500,-29,-39,40,0,0,0,0,0
1564072654531.25,-31,-39,40,0,0,0,0,0
1564072654562.5,-30,-39,41,0,0,0,0,0
1564072654593.75,-29,-38,40,0,0,0,0,0
1564072654625,-30,-38,40,0,0,0,0,0
1564072654656.25,-31,-39,40,0,0,0,0,0
1564072654687.5,-29,-39,40,0,0,0,0,0
1564072654718.75,-30,-39,41,0,0,0,0,0
1564072654750,-30,-40,41,0,0,0,0,0
1564072654781.25,-28,-39,39,0,0,0,0,0
1564072654812.5,-30,-39,40,0,0,0,0,0
1564072654843.75,-29,-40,40,0,0,0,0,0
1564072654875,-29,-40,39,0,0,0,0,0
1564072654906.25,-30,-40,39,0,0,0,0,0
1564072654937.5,-28,-41,41,0,0,0,0,0
1564072654968.75,-27,-42,41,0,0,0,0,0
1564072655000,-28,-44,40,0,0,0,0,0
1564072655031.25,-28,-45,40,0,0,0,0,0
1564072655062.5,-28,-40,37,0,0,0,0,0
1564072655093.75,-33,-39,38,0,0,0,0,0
1564072655125,-31,-36,42,0,0,0,0,0
1564072655156.25,-27,-34,42,0,0,0,0,0
1564072655187.5,-32,-35,45,0,0,0,0,0
1564072655218.75,-32,-39,49,0,0,0,0,0
1564072655250,-22,-39,39,0,0,0,0,0
1564072655281.25,-33,-41,33,0,0,0,0,0
1564072655312.5,-38,-45,38,0,0,0,0,0
1564072655343.75,-31,-48,41,0,0,0,0,0
1564072655375,-23,-42,38,0,0,0,0,0
1564072655406.25,-36,-36,37,0,0,0,0,0
1564072655437.5,-39,-36,43,0,0,0,0,0
1564072655468.75,-32,-34,43,0,0,0,0,0
1564072655500,-29,-34,37,0,0,0,0,0
1564072655531.25,-36,-34,33,0,0,0,0,0
1564072655562.5,-38,-36,31,0,0,0,0,0
1564072655593.75,-33,-34,31,0,0,0,0,0
1564072655625,-37,-34,38,0,0,0,0,0
1564072655656.25,-32,-36,50,0,0,0,0,0
1564072655687.5,-32,-41,49,0,0,0,0,0
1564072655718.75,-35,-42,43,0,0,0,0,0
1564072655750,-34,-43,33,0,0,0,0,0
1564072655781.25,-30,-44,30,0,0,0,0,0
1564072655812.5,-29,-45,29,0,0,0,0,0
1564072655843.75,-31,-43,30,0,0,0,0,0
1564072655875,-29,-39,35,0,0,0,0,0
1564072655906.25,-31,-40,38,0,0,0,0,0
1564072655937.5,-36,-42,39,0,0,0,0,0
1564072655968.75,-36,-42,38,0,0,0,0,0
1564072656000,-31,-43,40,0,0,0,0,0
1564072656031.25,-31,-42,40,0,0,0,0,0
1564072656062.5,-31,-39,36,0,0,0,0,0
1564072656093.75,-31,-39,35,0,0,0,0,0
1564072656125,-31,-40,34,0,0,0,0,0
1564072656156.25,-31,-43,34,0,0,0,0,0
1564072656187.5,-32,-44,35,0,0,0,0,0
1564072656218.75,-32,-43,38,0,0,0,0,0
1564072656250,-31,-42,37,0,0,0,0,0
1564072656281.25,-33,-41,38,0,0,0,0,0
1564072656312.5,-32,-40,37,0,0,0,0,0
1564072656343.75,-31,-40,36,0,0,0,0,0
1564072656375,-32,-41,37,0,0,0,0,0
1564072656406.25,-31,-41,38,0,0,0,0,0
1564072656437.5,-30,-40,37,0,0,0,0,0
1564072656468.75,-34,-41,38,0,0,0,0,0
1564072656500,-33,-41,38,0,0,0,0,0
1564072656531.25,-33,-40,36,0,0,0,0,0
1564072656562.5,-33,-40,37,0,0,0,0,0
1564072656593.75,-34,-40,37,0,0,0,0,0
1564072656625,-29,-37,36,0,0,0,0,0
1564072656656.25,-32,-37,36,0,0,0,0,0
1564072656687.5,-35,-40,37,0,0,0,0,0
1564072656718.75,-34,-41,36,0,0,0,0,0
1564072656750,-32,-41,33,0,0,0,0,0
1564072656781.25,-34,-41,33,0,0,0,0,0
1564072656812.5,-32,-41,35,0,0,0,0,0
1564072656843.75,-33,-42,36,0,0,0,0,0
1564072656875,-33,-42,34,0,0,0,0,0
1564072656906.25,-33,-42,35,0,0,0,0,0
1564072656937.5,-31,-40,36,0,0,0,0,0
1564072656968.75,-32,-39,37,0,0,0,0,0
1564072657000,-34,-39,38,0,0,0,0,0
1564072657031.25,-32,-40,37,0,0,0,0,0
1564072657062.5,-32,-41,36,0,0,0,0,0
1564072657093.75,-32,-41,35,0,0,0,0,0
1564072657125,-32,-41,35,0,0,0,0,0
1564072657156.25,-31,-41,36,0,0,0,0,0
1564072657187.5,-31,-41,35,0,0,0,0,0
1564072657218.75,-33,-41,36,0,0,0,0,0
1564072657250,-33,-41,36,0,0,0,0,0
1564072657281.25,-32,-40,36,0,0,0,0,0
1564072657312.5,-33,-41,37,0,0,0,0,0
1564072657343.75,-33,-41,36,0,0,0,0,0
1564072657375,-33,-41,35,0,0,0,0,0
1564072657406.25,-34,-41,36,0,0,0,0,0
1564072657437.5,-32,-41,36,0,0,0,0,0
1564072657468.75,-32,-41,35,0,0,0,0,0
1564072657500,-33,-41,36,0,0,0,0,0
1564072657531.25,-33,-42,36,0,0,0,0,0
1564072657562.5,-33,-41,35,0,0,0,0,0
1564072657593.75,-33,-40,35,0,0,0,0,0
1564072657625,-33,-41,36,0,0,0,0,0
1564072657656.25,-32,-41,37,0,0,0,0,0
1564072657687.5,-36,-47,40,0,0,0,0,0
1564072657718.75,-50,-66,59,0,0,0,0,0
1564072657750,-30,-61,62,0,0,0,0,0
1564072657781.25,-22,-48,36,0,0,0,0,0
1564072657812.5,-26,-39,34,0,0,0,0,0
1564072657843.75,-39,-27,15,0,0,0,0,0
1564072657875,-74,-21,42,0,0,0,0,0
1564072657906.25,-69,-24,9,0,0,0,0,0
1564072657937.5,-67,-20,14,0,0,0,0,0
1564072657968.75,-52,-16,12,0,0,0,0,0
1564072658000,-30,-11,23,0,0,0,0,0
1564072658031.25,-47,-7,13,0,0,0,0,0
1564072658062.5,-49,-10,16,0,0,0,0,0
1564072658093.75,-58,-13,15,0,0,0,0,0
1564072658125,-54,-14,16,0,0,0,0,0
1564072658156.25,-51,-14,19,0,0,0,0,0
1564072658187.5,-51,-13,22,0,0,0,0,0
1564072658218.75,-43,-11,28,0,0,0,0,0
1564072658250,-48,-22,19,0,0,0,0,0
1564072658281.25,-68,-26,1,0,0,0,0,0
1564072658312.5,-69,-29,12,0,0,0,0,0
1564072658343.75,-66,-23,3,0,0,0,0,0
1564072658375,-42,-24,27,0,0,0,0,0
1564072658406.25,-39,-21,31,0,0,0,0,0
1564072658437.5,-71,-18,10,0,0,0,0,0
1564072658468.75,-43,-33,34,0,0,0,0,0
1564072658500,-45,-45,14,0,0,0,0,0
1564072658531.25,-88,-34,38,0,0,0,0,0
1564072658562.5,-78,-36,28,0,0,0,0,0
1564072658593.75,-33,-28,26,0,0,0,0,0
1564072658625,-24,-25,33,0,0,0,0,0
1564072658656.25,-59,-11,28,0,0,0,0,0
1564072658687.5,-55,-19,0,0,0,0,0,0
1564072658718.75,-59,-40,58,0,0,0,0,0
1564072658750,-44,-37,50,0,0,0,0,0
1564072658781.25,-32,-32,34,0,0,0,0,0
1564072658812.5,-42,-36,31,0,0,0,0,0
1564072658843.75,-46,-35,27,0,0,0,0,0
1564072658875,-51,-30,24,0,0,0,0,0
1564072658906.25,-42,-32,25,0,0,0,0,0
1564072658937.5,-40,-35,36,0,0,0,0,0
1564072658968.75,-42,-36,34,0,0,0,0,0
1564072659000,-52,-29,25,0,0,0,0,0
1564072659031.25,-46,-28,23,0,0,0,0,0
1564072659062.5,-53,-33,25,0,0,0,0,0
1564072659093.75,-54,-34,33,0,0,0,0,0
1564072659125,-30,-40,52,0,0,0,0,0
1564072659156.25,-17,-34,53,0,0,0,0,0
1564072659187.5,-51,-28,30,0,0,0,0,0
1564072659218.75,-56,-27,26,0,0,0,0,0
1564072659250,-61,-24,19,0,0,0,0,0
1564072659281.25,-65,-20,14,0,0,0,0,0
1564072659312.5,-53,-25,19,0,0,0,0,0
1564072659343.75,-47,-30,27,0,0,0,0,0
1564072659375,-48,-32,28,0,0,0,0,0
1564072659406.25,-48,-32,24,0,0,0,0,0
1564072659437.5,-49,-29,22,0,0,0,0,0
1564072659468.75,-44,-20,18,0,0,0,0,0
1564072659500,-41,-19,12,0,0,0,0,0
1564072659531.25,-72,-33,35,0,0,0,0,0
1564072659562.5,-72,-33,20,0,0,0,0,0
1564072659593.75,-35,-30,23,0,0,0,0,0
1564072659625,-30,-29,25,0,0,0,0,0
1564072659656.25,-29,-35,28,0,0,0,0,0
1564072659687.5,-47,-40,38,0,0,0,0,0
1564072659718.75,-52,-38,37,0,0,0,0,0
1564072659750,-47,-31,36,0,0,0,0,0
1564072659781.25,-38,-30,37,0,0,0,0,0
1564072659812.5,-47,-30,36,0,0,0,0,0
1564072659843.75,-47,-30,36,0,0,0,0,0
1564072659875,-44,-30,36,0,0,0,0,0
1564072659906.25,-44,-31,36,0,0,0,0,0
1564072659937.5,-45,-31,33,0,0,0,0,0
1564072659968.75,-43,-31,32,0,0,0,0,0
1564072660000,-44,-32,31,0,0,0,0,0
1564072660031.25,-44,-34,34,0,0,0,0,0
1564072660062.5,-43,-33,34,0,0,0,0,0
1564072660093.75,-42,-33,33,0,0,0,0,0
1564072660125,-45,-32,32,0,0,0,0,0
1564072660156.25,-46,-32,32,0,0,0,0,0
1564072660187.5,-42,-32,32,0,0,0,0,0
1564072660218.75,-44,-32,31,0,0,0,0,0
1564072660250,-44,-31,31,0,0,0,0,0
1564072660281.25,-44,-32,33,0,0,0,0,0
1564072660312.5,-44,-31,33,0,0,0,0,0
1564072660343.75,-45,-31,35,0,0,0,0,0
1564072660375,-44,-31,35,0,0,0,0,0
1564072660406.25,-43,-31,34,0,0,0,0,0
1564072660437.5,-43,-31,34,0,0,0,0,0
1564072660468.75,-45,-31,33,0,0,0,0,0
1564072660500,-44,-31,32,0,0,0,0,0
1564072660531.25,-44,-31,33,0,0,0,0,0
1564072660562.5,-45,-31,33,0,0,0,0,0
1564072660593.75,-44,-31,33,0,0,0,0,0
1564072660625,-44,-31,32,0,0,0,0,0
1564072660656.25,-44,-31,32,0,0,0,0,0
1564072660687.5,-44,-31,33,0,0,0,0,0
1564072660718.75,-43,-31,33,0,0,0,0,0
1564072660750,-44,-31,34,0,0,0,0,0
1564072660781.25,-45,-31,33,0,0,0,0,0
1564072660812.5,-45,-31,32,0,0,0,0,0
1564072660843.75,-44,-30,32,0,0,0,0,0
1564072660875,-42,-29,32,0,0,0,0,0
1564072660906.25,-45,-29,33,0,0,0,0,0
1564072660937.5,-45,-30,32,0,0,0,0,0
1564072660968.75,-43,-31,32,0,0,0,0,0
1564072661000,-44,-32,33,0,0,0,0,0
1564072661031.25,-44,-33,34,0,0,0,0,0
1564072661062.5,-43,-35,35,0,0,0,0,0
1564072661093.75,-43,-34,35,0,0,0,0,0
1564072661125,-42,-32,33,0,0,0,0,0
1564072661156.25,-43,-30,30,0,0,0,0,0
1564072661187.5,-45,-31,30,0,0,0,0,0
1564072661218.75,-42,-34,32,0,0,0,0,0
1564072661250,-42,-34,31,0,0,0,0,0
1564072661281.25,-43,-34,33,0,0,0,0,0
1564072661312.5,-44,-34,33,0,0,0,0,0
1564072661343.75,-45,-35,35,0,0,0,0,0
1564072661375,-43,-33,36,0,0,0,0,0
1564072661406.25,-42,-32,35,0,0,0,0,0
1564072661437.5,-43,-31,33,0,0,0,0,0
1564072661468.75,-42,-31,33,0,0,0,0,0
1564072661500,-42,-31,34,0,0,0,0,0
1564072661531.25,-43,-31,33,0,0,0,0,0
1564072661562.5,-42,-31,33,0,0,0,0,0
1564072661593.75,-44,-32,33,0,0,0,0,0
1564072661625,-43,-34,33,0,0,0,0,0
1564072661656.25,-41,-34,33,0,0,0,0,0
1564072661687.5,-42,-34,33,0,0,0,0,0
1564072661718.75,-43,-34,33,0,0,0,0,0
1564072661750,-43,-33,33,0,0,0,0,0
1564072661781.25,-42,-32,34,0,0,0,0,0
1564072661812.5,-44,-32,35,0,0,0,0,0
1564072661843.75,-44,-31,35,0,0,0,0,0
1564072661875,-43,-31,34,0,0,0,0,0
1564072661906.25,-42,-30,34,0,0,0,0,0
1564072661937.5,-43,-31,34,0,0,0,0,0
1564072661968.75,-42,-31,34,0,0,0,0,0
1564072662000,-43,-32,34,0,0,0,0,0
1564072662031.25,-43,-32,35,0,0,0,0,0
1564072662062.5,-43,-32,35,0,0,0,0,0
1564072662093.75,-43,-33,34,0,0,0,0,0
1564072662125,-43,-33,33,0,0,0,0,0
1564072662156.25,-43,-33,34,0,0,0,0,0
1564072662187.5,-43,-33,34,0,0,0,0,0
1564072662218.75,-42,-32,34,0,0,0,0,0
1564072662250,-44,-32,34,0,0,0,0,0
1564072662281.25,-45,-33,34,0,0,0,0,0
1564072662312.5,-43,-32,32,0,0,0,0,0
1564072662343.75,-42,-31,32,0,0,0,0,0
1564072662375,-45,-33,32,0,0,0,0,0
1564072662406.25,-45,-33,34,0,0,0,0,0
1564072662437.5,-43,-33,33,0,0,0,0,0
1564072662468.75,-44,-34,34,0,0,0,0,0
1564072662500,-56,-45,51,0,0,0,0,0
1564072662531.25,-61,-59,72,0,0,0,0,0
1564072662562.5,-29,-57,57,0,0,0,0,0
1564072662593.75,-33,-42,31,0,0,0,0,0
1564072662625,5,-5,-40,0,0,0,0,0
1564072662656.25,-128,19,-74,0,0,0,0,0
1564072662687.5,-82,15,-77,0,0,0,0,0
1564072662718.75,-71,-41,-90,0,0,0,0,0
1564072662750,35,-38,41,0,0,0,0,0
1564072662781.25,121,6,19,0,0,0,0,0
1564072662812.5,10,4,-119,0,0,0,0,0
1564072662843.75,-128,16,-97,0,0,0,0,0
1564072662875,-14,23,-91,0,0,0,0,0
1564072662906.25,78,-31,51,0,0,0,0,0
1564072662937.5,75,-65,127,0,0,0,0,0
1564072662968.75,-105,-31,55,0,0,0,0,0
1564072663000,-33,-23,58,0,0,0,0,0
1564072663031.25,-25,-16,53,0,0,0,0,0
1564072663062.5,-38,-18,37,0,0,0,0,0
1564072663093.75,-39,-20,39,0,0,0,0,0
1564072663125,-33,-24,45,0,0,0,0,0
1564072663156.25,-30,-25,47,0,0,0,0,0
1564072663187.5,-36,-27,42,0,0,0,0,0
1564072663218.75,-38,-28,40,0,0,0,0,0
1564072663250,-40,-31,38,0,0,0,0,0
1564072663281.25,-46,-33,38,0,0,0,0,0
1564072663312.5,-49,-34,37,0,0,0,0,0
1564072663343.75,-47,-31,35,0,0,0,0,0
1564072663375,-44,-28,31,0,0,0,0,0
1564072663406.25,-44,-28,31,0,0,0,0,0
1564072663437.5,-44,-29,36,0,0,0,0,0
1564072663468.75,-42,-29,37,0,0,0,0,0
1564072663500,-43,-29,38,0,0,0,0,0
1564072663531.25,-45,-31,38,0,0,0,0,0
1564072663562.5,-44,-31,38,0,0,0,0,0
1564072663593.75,-33,-35,34,0,0,0,0,0
1564072663625,-36,-37,30,0,0,0,0,0
1564072663656.25,-19,-29,19,0,0,0,0,0
1564072663687.5,-32,-7,30,0,0,0,0,0
1564072663718.75,-62,-22,42,0,0,0,0,0
1564072663750,-46,-26,34,0,0,0,0,0
1564072663781.25,-45,-28,28,0,0,0,0,0
1564072663812.5,-38,-38,39,0,0,0,0,0
1564072663843.75,-35,-42,47,0,0,0,0,0
1564072663875,-43,-43,43,0,0,0,0,0
1564072663906.25,-42,-41,40,0,0,0,0,0
1564072663937.5,-40,-37,33,0,0,0,0,0
1564072663968.75,-40,-37,32,0,0,0,0,0
1564072664000,-40,-34,30,0,0,0,0,0
1564072664031.25,-42,-33,31,0,0,0,0,0
1564072664062.5,-43,-28,36,0,0,0,0,0
1564072664093.75,-43,-28,38,0,0,0,0,0
1564072664125,-40,-35,39,0,0,0,0,0
1564072664156.25,-41,-40,38,0,0,0,0,0
1564072664187.5,-39,-45,32,0,0,0,0,0
1564072664218.75,-36,-42,28,0,0,0,0,0
1564072664250,-41,-38,27,0,0,0,0,0
1564072664281.25,-42,-33,37,0,0,0,0,0
1564072664312.5,-40,-29,39,0,0,0,0,0
1564072664343.75,-39,-35,41,0,0,0,0,0
1564072664375,-34,-35,38,0,0,0,0,0
1564072664406.25,-35,-34,30,0,0,0,0,0
1564072664437.5,-37,-36,30,0,0,0,0,0
1564072664468.75,-38,-36,31,0,0,0,0,0
1564072664500,-39,-38,34,0,0,0,0,0
1564072664531.25,-35,-42,34,0,0,0,0,0
1564072664562.5,-29,-36,29,0,0,0,0,0
1564072664593.75,-40,-38,34,0,0,0,0,0
1564072664625,-42,-41,40,0,0,0,0,0
1564072664656.25,-37,-41,43,0,0,0,0,0
1564072664687.5,-38,-38,38,0,0,0,0,0
1564072664718.75,-38,-37,35,0,0,0,0,0
1564072664750,-39,-35,35,0,0,0,0,0
1564072664781.25,-39,-32,36,0,0,0,0,0
1564072664812.5,-39,-29,37,0,0,0,0,0
1564072664843.75,-39,-28,35,0,0,0,0,0
1564072664875,-38,-33,35,0,0,0,0,0
1564072664906.25,-37,-35,36,0,0,0,0,0
1564072664937.5,-33,-37,38,0,0,0,0,0
1564072664968.75,-32,-39,37,0,0,0,0,0
1564072665000,-37,-42,37,0,0,0,0,0
1564072665031.25,-37,-39,36,0,0,0,0,0
1564072665062.5,-36,-33,33,0,0,0,0,0
1564072665093.75,-39,-39,38,0,0,0,0,0
1564072665125,-37,-42,40,0,0,0,0,0
1564072665156.25,-33,-44,42,0,0,0,0,0
1564072665187.5,-32,-41,39,0,0,0,0,0
1564072665218.75,-39,-32,33,0,0,0,0,0
1564072665250,-39,-30,34,0,0,0,0,0
1564072665281.25,-39,-26,30,0,0,0,0,0
1564072665312.5,-41,-30,30,0,0,0,0,0
1564072665343.75,-31,-42,37,0,0,0,0,0
1564072665375,-25,-47,38,0,0,0,0,0
1564072665406.25,-28,-49,38,0,0,0,0,0
1564072665437.5,-35,-49,40,0,0,0,0,0
1564072665468.75,-39,-43,41,0,0,0,0,0
1564072665500,-41,-34,36,0,0,0,0,0
1564072665531.25,-38,-34,34,0,0,0,0,0
1564072665562.5,-33,-38,32,0,0,0,0,0
1564072665593.75,-32,-39,35,0,0,0,0,0
1564072665625,-32,-41,39,0,0,0,0,0
1564072665656.25,-31,-42,38,0,0,0,0,0
1564072665687.5,-34,-42,35,0,0,0,0,0
1564072665718.75,-36,-43,36,0,0,0,0,0
1564072665750,-35,-40,35,0,0,0,0,0
1564072665781.25,-35,-37,36,0,0,0,0,0
1564072665812.5,-36,-35,38,0,0,0,0,0
1564072665843.75,-35,-33,38,0,0,0,0,0
1564072665875,-37,-32,36,0,0,0,0,0
1564072665906.25,-36,-40,37,0,0,0,0,0
1564072665937.5,-33,-44,35,0,0,0,0,0
1564072665968.75,-34,-41,31,0,0,0,0,0
1564072666000,-39,-39,34,0,0,0,0,0
1564072666031.25,-32,-37,42,0,0,0,0,0
1564072666062.5,-30,-36,43,0,0,0,0,0
1564072666093.75,-39,-35,39,0,0,0,0,0
1564072666125,-41,-37,35,0,0,0,0,0
1564072666156.25,-36,-37,28,0,0,0,0,0
1564072666187.5,-36,-36,27,0,0,0,0,0
1564072666218.75,-37,-38,39,0,0,0,0,0
1564072666250,-33,-38,46,0,0,0,0,0
1564072666281.25,-24,-34,51,0,0,0,0,0
1564072666312.5,-37,-47,42,0,0,0,0,0
1564072666343.75,-42,-48,34,0,0,0,0,0
1564072666375,-37,-37,22,0,0,0,0,0
1564072666406.25,-37,-33,22,0,0,0,0,0
1564072666437.5,-36,-31,28,0,0,0,0,0
1564072666468.75,-38,-30,33,0,0,0,0,0
1564072666500,-39,-32,39,0,0,0,0,0
1564072666531.25,-37,-35,41,0,0,0,0,0
1564072666562.5,-41,-43,41,0,0,0,0,0
1564072666593.75,-37,-47,42,0,0,0,0,0
1564072666625,-27,-51,38,0,0,0,0,0
1564072666656.25,-29,-49,33,0,0,0,0,0
1564072666687.5,-37,-44,30,0,0,0,0,0
1564072666718.75,-36,-38,31,0,0,0,0,0
1564072666750,-33,-22,27,0,0,0,0,0
1564072666781.25,-44,-23,34,0,0,0,0,0
1564072666812.5,-45,-25,40,0,0,0,0,0
1564072666843.75,-39,-29,46,0,0,0,0,0
1564072666875,-37,-37,45,0,0,0,0,0
1564072666906.25,-39,-49,36,0,0,0,0,0
1564072666937.5,-36,-48,30,0,0,0,0,0
1564072666968.75,-34,-43,30,0,0,0,0,0
1564072667000,-33,-44,41,0,0,0,0,0
1564072667031.25,-33,-43,41,0,0,0,0,0
1564072667062.5,-34,-40,37,0,0,0,0,0
1564072667093.75,-30,-31,28,0,0,0,0,0
1564072667125,-29,-26,24,0,0,0,0,0
1564072667156.25,-47,-27,36,0,0,0,0,0
1564072667187.5,-39,-32,47,0,0,0,0,0
1564072667218.75,-33,-37,49,0,0,0,0,0
1564072667250,-35,-46,42,0,0,0,0,0
1564072667281.25,-38,-46,37,0,0,0,0,0
1564072667312.5,-36,-39,30,0,0,0,0,0
1564072667343.75,-33,-35,30,0,0,0,0,0
1564072667375,-37,-35,36,0,0,0,0,0
1564072667406.25,-37,-36,36,0,0,0,0,0
1564072667437.5,-33,-34,33,0,0,0,0,0
1564072667468.75,-36,-36,35,0,0,0,0,0
1564072667500,-38,-38,41,0,0,0,0,0
1564072667531.25,-34,-37,40,0,0,0,0,0
1564072667562.5,-36,-38,39,0,0,0,0,0
1564072667593.75,-37,-38,34,0,0,0,0,0
1564072667625,-37,-37,31,0,0,0,0,0
1564072667656.25,-36,-38,33,0,0,0,0,0
1564072667687.5,-35,-39,34,0,0,0,0,0
1564072667718.75,-36,-39,33,0,0,0,0,0
1564072667750,-36,-40,33,0,0,0,0,0
1564072667781.25,-38,-40,34,0,0,0,0,0
1564072667812.5,-39,-40,36,0,0,0,0,0
1564072667843.75,-38,-39,39,0,0,0,0,0
1564072667875,-39,-37,40,0,0,0,0,0
1564072667906.25,-39,-38,36,0,0,0,0,0
1564072667937.5,-35,-40,31,0,0,0,0,0
1564072667968.75,-34,-42,31,0,0,0,0,0
1564072668000,-32,-45,33,0,0,0,0,0
1564072668031.25,-31,-45,32,0,0,0,0,0
1564072668062.5,-36,-41,30,0,0,0,0,0
1564072668093.75,-39,-41,32,0,0,0,0,0
1564072668125,-37,-41,35,0,0,0,0,0
1564072668156.25,-33,-39,33,0,0,0,0,0
1564072668187.5,-38,-40,35,0,0,0,0,0
1564072668218.75,-37,-40,36,0,0,0,0,0
1564072668250,-34,-36,36,0,0,0,0,0
1564072668281.25,-35,-36,36,0,0,0,0,0
1564072668312.5,-36,-38,36,0,0,0,0,0
1564072668343.75,-35,-39,35,0,0,0,0,0
1564072668375,-33,-39,34,0,0,0,0,0
1564072668406.25,-33,-40,36,0,0,0,0,0
1564072668437.5,-33,-40,36,0,0,0,0,0
1564072668468.75,-34,-41,35,0,0,0,0,0
1564072668500,-35,-41,35,0,0,0,0,0
1564072668531.25,-33,-41,35,0,0,0,0,0
1564072668562.5,-34,-41,36,0,0,0,0,0
1564072668593.75,-34,-41,34,0,0,0,0,0
1564072668625,-33,-41,33,0,0,0,0,0
1564072668656.25,-34,-40,34,0,0,0,0,0
1564072668687.5,-34,-40,35,0,0,0,0,0
1564072668718.75,-34,-39,36,0,0,0,0,0
1564072668750,-35,-40,37,0,0,0,0,0
1564072668781.25,-35,-42,36,0,0,0,0,0
1564072668812.5,-35,-42,36,0,0,0,0,0
1564072668843.75,-35,-42,36,0,0,0,0,0
1564072668875,-34,-41,35,0,0,0,0,0
1564072668906.25,-34,-41,36,0,0,0,0,0
1564072668937.5,-30,-39,34,0,0,0,0,0
1564072668968.75,-30,-36,31,0,0,0,0,0
1564072669000,-36,-40,36,0,0,0,0,0
1564072669031.25,-35,-40,37,0,0,0,0,0
1564072669062.5,-33,-38,34,0,0,0,0,0
1564072669093.75,-35,-38,35,0,0,0,0,0
1564072669125,-39,-42,38,0,0,0,0,0
1564072669156.25,-38,-43,39,0,0,0,0,0
1564072669187.5,-32,-40,37,0,0,0,0,0
1564072669218.75,-34,-38,35,0,0,0,0,0
1564072669250,-37,-39,36,0,0,0,0,0
1564072669281.25,-36,-41,36,0,0,0,0,0
1564072669312.5,-35,-40,35,0,0,0,0,0
1564072669343.75,-35,-39,30,0,0,0,0,0
1564072669375,-35,-38,30,0,0,0,0,0
1564072669406.25,-40,-36,28,0,0,0,0,0
1564072669437.5,-39,-35,29,0,0,0,0,0
1564072669468.75,-37,-32,34,0,0,0,0,0
1564072669500,-37,-29,37,0,0,0,0,0
1564072669531.25,-41,-35,42,0,0,0,0,0
1564072669562.5,-41,-37,39,0,0,0,0,0
1564072669593.75,-37,-43,32,0,0,0,0,0
1564072669625,-31,-44,27,0,0,0,0,0
1564072669656.25,-30,-44,26,0,0,0,0,0
1564072669687.5,-35,-42,31,0,0,0,0,0
1564072669718.75,-36,-39,33,0,0,0,0,0
1564072669750,-39,-39,36,0,0,0,0,0
1564072669781.25,-39,-39,33,0,0,0,0,0
1564072669812.5,-39,-44,29,0,0,0,0,0
1564072669843.75,-38,-45,28,0,0,0,0,0
1564072669875,-36,-45,31,0,0,0,0,0
1564072669906.25,-36,-44,32,0,0,0,0,0
1564072669937.5,-36,-40,30,0,0,0,0,0
1564072669968.75,-39,-40,30,0,0,0,0,0
1564072670000,-38,-40,29,0,0,0,0,0
1564072670031.25,-38,-40,31,0,0,0,0,0
1564072670062.5,-39,-41,33,0,0,0,0,0
1564072670093.75,-37,-41,31,0,0,0,0,0
1564072670125,-38,-40,30,0,0,0,0,0
1564072670156.25,-39,-40,31,0,0,0,0,0
1564072670187.5,-39,-40,31,0,0,0,0,0
1564072670218.75,-37,-40,31,0,0,0,0,0
1564072670250,-38,-40,31,0,0,0,0,0
1564072670281.25,-39,-41,31,0,0,0,0,0
1564072670312.5,-38,-40,31,0,0,0,0,0
1564072670343.75,-37,-39,30,0,0,0,0,0
1564072670375,-38,-38,31,0,0,0,0,0
1564072670406.25,-39,-39,31,0,0,0,0,0
1564072670437.5,-38,-39,31,0,0,0,0,0
1564072670468.75,-38,-39,31,0,0,0,0,0
1564072670500,-39,-39,32,0,0,0,0,0
1564072670531.25,-38,-39,32,0,0,0,0,0
1564072670562.5,-38,-39,31,0,0,0,0,0
1564072670593.75,-37,-39,31,0,0,0,0,0
1564072670625,-38,-40,32,0,0,0,0,0
1564072670656.25,-38,-40,32,0,0,0,0,0
1564072670687.5,-37,-40,32,0,0,0,0,0
1564072670718.75,-37,-39,32,0,0,0,0,0
1564072670750,-39,-40,33,0,0,0,0,0
1564072670781.25,-38,-40,33,0,0,0,0,0
1564072670812.5,-37,-40,31,0,0,0,0,0
1564072670843.75,-38,-40,32,0,0,0,0,0
1564072670875,-38,-40,33,0,0,0,0,0
1564072670906.25,-37,-41,32,0,0,0,0,0
1564072670937.5,-36,-40,32,0,0,0,0,0
1564072670968.75,-39,-41,33,0,0,0,0,0
1564072671000,-39,-41,33,0,0,0,0,0
1564072671031.25,-37,-40,33,0,0,0,0,0
1564072671062.5,-37,-40,33,0,0,0,0,0
1564072671093.75,-37,-40,33,0,0,0,0,0
1564072671125,-38,-40,32,0,0,0,0,0
1564072671156.25,-38,-40,33,0,0,0,0,0
1564072671187.5,-38,-40,33,0,0,0,0,0
1564072671218.75,-38,-37,33,0,0,0,0,0
1564072671250,-39,-35,36,0,0,0,0,0
1564072671281.25,-38,-34,37,0,0,0,0,0
1564072671312.5,-37,-34,34,0,0,0,0,0
1564072671343.75,-37,-35,33,0,0,0,0,0
1564072671375,-37,-36,33,0,0,0,0,0
1564072671406.25,-37,-38,33,0,0,0,0,0
1564072671437.5,-37,-40,34,0,0,0,0,0
1564072671468.75,-37,-41,33,0,0,0,0,0
1564072671500,-36,-43,36,0,0,0,0,0
1564072671531.25,-35,-47,42,0,0,0,0,0
1564072671562.5,-33,-38,36,0,0,0,0,0
1564072671593.75,-40,-34,26,0,0,0,0,0
1564072671625,-48,-31,18,0,0,0,0,0
1564072671656.25,-47,-30,25,0,0,0,0,0
1564072671687.5,-43,-32,33,0,0,0,0,0
1564072671718.75,-39,-36,43,0,0,0,0,0
1564072671750,-38,-39,46,0,0,0,0,0
1564072671781.25,-34,-40,46,0,0,0,0,0
1564072671812.5,-33,-37,39,0,0,0,0,0
1564072671843.75,-39,-32,28,0,0,0,0,0
1564072671875,-43,-30,23,0,0,0,0,0
1564072671906.25,-43,-25,21,0,0,0,0,0
1564072671937.5,-43,-27,25,0,0,0,0,0
1564072671968.75,-45,-33,35,0,0,0,0,0
1564072672000,-41,-39,41,0,0,0,0,0
1564072672031.25,-37,-40,42,0,0,0,0,0
1564072672062.5,-35,-42,37,0,0,0,0,0
1564072672093.75,-37,-42,34,0,0,0,0,0
1564072672125,-37,-41,32,0,0,0,0,0
1564072672156.25,-37,-40,32,0,0,0,0,0
1564072672187.5,-39,-37,33,0,0,0,0,0
1564072672218.75,-40,-36,34,0,0,0,0,0
1564072672250,-38,-34,34,0,0,0,0,0
1564072672281.25,-39,-33,33,0,0,0,0,0
1564072672312.5,-41,-33,33,0,0,0,0,0
1564072672343.75,-41,-33,34,0,0,0,0,0
1564072672375,-40,-32,33,0,0,0,0,0
1564072672406.25,-42,-33,31,0,0,0,0,0
1564072672437.5,-44,-37,35,0,0,0,0,0
1564072672468.75,-38,-39,36,0,0,0,0,0
1564072672500,-38,-40,33,0,0,0,0,0
1564072672531.25,-40,-41,31,0,0,0,0,0
1564072672562.5,-40,-40,31,0,0,0,0,0
1564072672593.75,-37,-39,33,0,0,0,0,0
1564072672625,-36,-38,33,0,0,0,0,0
1564072672656.25,-38,-36,32,0,0,0,0,0
1564072672687.5,-40,-36,32,0,0,0,0,0
1564072672718.75,-41,-35,35,0,0,0,0,0
1564072672750,-41,-34,34,0,0,0,0,0
1564072672781.25,-43,-32,33,0,0,0,0,0
1564072672812.5,-43,-31,32,0,0,0,0,0
1564072672843.75,-42,-30,33,0,0,0,0,0
1564072672875,-41,-32,34,0,0,0,0,0
1564072672906.25,-41,-33,34,0,0,0,0,0
1564072672937.5,-41,-37,34,0,0,0,0,0
1564072672968.75,-41,-38,35,0,0,0,0,0
1564072673000,-40,-39,33,0,0,0,0,0
1564072673031.25,-40,-38,32,0,0,0,0,0
1564072673062.5,-40,-36,31,0,0,0,0,0
1564072673093.75,-40,-35,31,0,0,0,0,0
1564072673125,-41,-33,33,0,0,0,0,0
1564072673156.25,-42,-34,33,0,0,0,0,0
1564072673187.5,-42,-34,34,0,0,0,0,0
1564072673218.75,-42,-35,34,0,0,0,0,0
1564072673250,-41,-36,34,0,0,0,0,0
1564072673281.25,-41,-35,33,0,0,0,0,0
1564072673312.5,-41,-35,33,0,0,0,0,0
1564072673343.75,-42,-35,34,0,0,0,0,0
1564072673375,-41,-35,34,0,0,0,0,0
1564072673406.25,-40,-34,32,0,0,0,0,0
1564072673437.5,-42,-34,31,0,0,0,0,0
1564072673468.75,-44,-34,32,0,0,0,0,0
1564072673500,-41,-34,33,0,0,0,0,0
1564072673531.25,-40,-35,34,0,0,0,0,0
1564072673562.5,-41,-35,34,0,0,0,0,0
1564072673593.75,-41,-35,33,0,0,0,0,0
1564072673625,-41,-35,32,0,0,0,0,0
1564072673656.25,-41,-35,32,0,0,0,0,0
1564072673687.5,-41,-35,34,0,0,0,0,0
1564072673718.75,-41,-35,34,0,0,0,0,0
1564072673750,-41,-35,33,0,0,0,0,0
1564072673781.25,-41,-35,33,0,0,0,0,0
1564072673812.5,-41,-34,33,0,0,0,0,0
1564072673843.75,-41,-34,33,0,0,0,0,0
1564072673875,-41,-35,33,0,0,0,0,0
1564072673906.25,-41,-35,33,0,0,0,0,0
1564072673937.5,-41,-36,33,0,0,0,0,0
1564072673968.75,-41,-35,34,0,0,0,0,0
1564072674000,-41,-35,33,0,0,0,0,0
1564072674031.25,-41,-35,33,0,0,0,0,0
1564072674062.5,-41,-35,33,0,0,0,0,0
1564072674093.75,-41,-35,33,0,0,0,0,0
1564072674125,-41,-35,33,0,0,0,0,0
1564072674156.25,-41,-35,33,0,0,0,0,0
1564072674187.5,-41,-36,33,0,0,0,0,0
1564072674218.75,-41,-35,33,0,0,0,0,0
1564072674250,-41,-36,33,0,0,0,0,0
1564072674281.25,-41,-35,33,0,0,0,0,0
1564072674312.5,-41,-35,33,0,0,0,0,0
1564072674343.75,-41,-35,32,0,0,0,0,0
1564072674375,-41,-35,32,0,0,0,0,0
1564072674406.25,-41,-35,33,0,0,0,0,0
1564072674437.5,-41,-35,33,0,0,0,0,0
1564072674468.75,-41,-34,34,0,0,0,0,0
1564072674500,-42,-35,33,0,0,0,0,0
1564072674531.25,-42,-35,32,0,0,0,0,0
1564072674562.5,-41,-36,33,0,0,0,0,0
1564072674593.75,-42,-37,34,0,0,0,0,0
1564072674625,-41,-37,33,0,0,0,0,0
1564072674656.25,-41,-37,33,0,0,0,0,0
1564072674687.5,-40,-36,32,0,0,0,0,0
1564072674718.75,-41,-36,32,0,0,0,0,0
1564072674750,-41,-34,32,0,0,0,0,0
1564072674781.25,-41,-33,33,0,0,0,0,0
1564072674812.5,-41,-33,34,0,0,0,0,0
1564072674843.75,-41,-33,34,0,0,0,0,0
1564072674875,-41,-34,34,0,0,0,0,0
1564072674906.25,-42,-35,34,0,0,0,0,0
1564072674937.5,-41,-36,34,0,0,0,0,0
1564072674968.75,-40,-36,33,0,0,0,0,0
1564072675000,-38,-36,32,0,0,0,0,0
1564072675031.25,-39,-38,34,0,0,0,0,0
1564072675062.5,-39,-38,35,0,0,0,0,0
1564072675093.75,-39,-36,32,0,0,0,0,0
1564072675125,-40,-37,29,0,0,0,0,0
1564072675156.25,-46,-38,26,0,0,0,0,0
1564072675187.5,-47,-36,41,0,0,0,0,0
1564072675218.75,-37,-31,38,0,0,0,0,0
1564072675250,-40,-30,31,0,0,0,0,0
1564072675281.25,-42,-31,30,0,0,0,0,0
1564072675312.5,-45,-30,34,0,0,0,0,0
1564072675343.75,-43,-29,37,0,0,0,0,0
1564072675375,-40,-27,38,0,0,0,0,0
1564072675406.25,-37,-27,44,0,0,0,0,0
1564072675437.5,-39,-32,50,0,0,0,0,0
1564072675468.75,-38,-31,43,0,0,0,0,0
1564072675500,-39,-37,4,0,0,0,0,0
1564072675531.25,-49,-28,4,0,0,0,0,0
1564072675562.5,-42,-43,44,0,0,0,0,0
1564072675593.75,-36,-42,50,0,0,0,0,0
1564072675625,-27,-35,48,0,0,0,0,0
1564072675656.25,-30,-35,47,0,0,0,0,0
1564072675687.5,-40,-31,41,0,0,0,0,0
1564072675718.75,-43,-32,43,0,0,0,0,0
1564072675750,-47,-29,44,0,0,0,0,0
1564072675781.25,-30,-27,39,0,0,0,0,0
1564072675812.5,-29,-29,35,0,0,0,0,0
1564072675843.75,-48,-29,9,0,0,0,0,0
1564072675875,-45,-37,21,0,0,0,0,0
1564072675906.25,-28,-42,40,0,0,0,0,0
1564072675937.5,-31,-44,39,0,0,0,0,0
1564072675968.75,-36,-36,49,0,0,0,0,0
1564072676000,-35,-33,46,0,0,0,0,0
1564072676031.25,-38,-33,50,0,0,0,0,0
1564072676062.5,-49,-30,20,0,0,0,0,0
1564072676093.75,-11,-34,49,0,0,0,0,0
1564072676125,-37,-38,47,0,0,0,0,0
1564072676156.25,-39,-34,33,0,0,0,0,0
1564072676187.5,-37,-37,42,0,0,0,0,0
1564072676218.75,-35,-35,41,0,0,0,0,0
1564072676250,-29,-35,40,0,0,0,0,0
1564072676281.25,-33,-37,41,0,0,0,0,0
1564072676312.5,-38,-37,36,0,0,0,0,0
1564072676343.75,-39,-36,31,0,0,0,0,0
1564072676375,-38,-36,33,0,0,0,0,0
1564072676406.25,-41,-37,37,0,0,0,0,0
1564072676437.5,-41,-36,36,0,0,0,0,0
1564072676468.75,-39,-35,35,0,0,0,0,0
1564072676500,-39,-35,34,0,0,0,0,0
1564072676531.25,-40,-36,36,0,0,0,0,0
1564072676562.5,-40,-36,35,0,0,0,0,0
1564072676593.75,-38,-36,35,0,0,0,0,0
1564072676625,-37,-35,35,0,0,0,0,0
1564072676656.25,-39,-36,36,0,0,0,0,0
1564072676687.5,-40,-36,36,0,0,0,0,0
1564072676718.75,-39,-35,35,0,0,0,0,0
1564072676750,-40,-35,35,0,0,0,0,0
1564072676781.25,-40,-35,35,0,0,0,0,0
1564072676812.5,-40,-35,34,0,0,0,0,0
1564072676843.75,-39,-36,34,0,0,0,0,0
1564072676875,-40,-36,35,0,0,0,0,0
1564072676906.25,-39,-36,36,0,0,0,0,0
1564072676937.5,-39,-35,34,0,0,0,0,0
1564072676968.75,-40,-35,34,0,0,0,0,0
1564072677000,-40,-35,34,0,0,0,0,0
1564072677031.25,-40,-35,33,0,0,0,0,0
1564072677062.5,-39,-35,35,0,0,0,0,0
1564072677093.75,-39,-36,35,0,0,0,0,0
1564072677125,-39,-36,36,0,0,0,0,0
1564072677156.25,-39,-36,36,0,0,0,0,0
1564072677187.5,-40,-35,36,0,0,0,0,0
1564072677218.75,-40,-36,35,0,0,0,0,0
1564072677250,-43,-39,37,0,0,0,0,0
1564072677281.25,-41,-40,41,0,0,0,0,0
1564072677312.5,-40,-43,42,0,0,0,0,0
1564072677343.75,-39,-40,38,0,0,0,0,0
1564072677375,-34,-36,33,0,0,0,0,0
1564072677406.25,-44,-34,37,0,0,0,0,0
1564072677437.5,-40,-32,37,0,0,0,0,0
1564072677468.75,-37,-21,34,0,0,0,0,0
1564072677500,-36,-19,32,0,0,0,0,0
